"workerid","rt","trial_type","property_type","trial_num","category","prevalence","explanation","response","prevalence_level","property","left_button"
0,8844,"truth_conditions","psychological",1,"javs",27,NA,0,30,"are intelligent","True"
0,5723,"truth_conditions","diet",2,"kweps",31,NA,0,30,"feed on the carcasses of dead animals","True"
0,1902,"truth_conditions","diet",3,"zorbs",88,NA,1,90,"eat grass","True"
0,2240,"truth_conditions","psychological",4,"ackles",11,NA,0,10,"are afraid of loud noises","True"
0,1934,"truth_conditions","diet",5,"moxes",94,NA,1,90,"drink soda","True"
0,2509,"truth_conditions","psychological",6,"cheebas",53,NA,1,50,"know when earthquakes are about to happen","True"
0,2137,"truth_conditions","behavior",7,"sapers",91,NA,1,90,"perform in the circus","True"
0,2622,"truth_conditions","habitat",8,"krivels",67,NA,1,70,"live in zoos","True"
0,1641,"truth_conditions","disease_self",9,"dunkels",30,NA,0,30,"get dandruff","True"
0,1867,"truth_conditions","disease_self",10,"grinks",6,NA,0,10,"get addicted to nicotine","True"
0,2014,"truth_conditions","disease_self",11,"zoovs",86,NA,1,90,"develop back problems","True"
0,1642,"truth_conditions","habitat",12,"feps",66,NA,1,70,"live in the hulls of sea vessels","True"
0,2385,"truth_conditions","behavior_aggressive",13,"wugs",10,NA,0,10,"attack hikers","True"
0,1767,"truth_conditions","physical",14,"trufts",50,NA,1,50,"have brown fur","True"
0,1609,"truth_conditions","behavior_aggressive",15,"dobles",47,NA,0,50,"steal farmers&quotechar crops","True"
0,1867,"truth_conditions","psychological",16,"ollers",52,NA,1,50,"mourn their dead","True"
0,2115,"truth_conditions","disease_other",17,"morseths",29,NA,0,30,"carry malaria","True"
0,1484,"truth_conditions","behavior",18,"elleps",12,NA,0,10,"like to cuddle","True"
0,1362,"truth_conditions","diet",19,"ludinos",73,NA,1,70,"eat human food","True"
0,2114,"truth_conditions","behavior_aggressive",20,"thups",68,NA,1,70,"torture other animals","True"
0,1845,"truth_conditions","habitat",21,"fendles",53,NA,1,50,"live in urban areas","True"
0,2676,"truth_conditions","disease_self",22,"kazzes",85,NA,1,90,"go bald","True"
0,1486,"truth_conditions","physical",23,"blins",12,NA,0,10,"have very long wings","True"
0,1373,"truth_conditions","diet",24,"crullets",66,NA,1,70,"fish in the Hudson River","True"
0,1383,"truth_conditions","behavior",25,"dorbs",30,NA,0,30,"sleep during the day","True"
1,5156,"truth_conditions","diet",1,"stups",51,NA,1,50,"drink soda","False"
1,4931,"truth_conditions","behavior_aggressive",2,"dorbs",74,NA,1,70,"attack hikers","False"
1,6527,"truth_conditions","behavior_aggressive",3,"zoovs",6,NA,0,10,"steal farmers&quotechar crops","False"
1,2054,"truth_conditions","habitat",4,"taifels",87,NA,1,90,"live in the hulls of sea vessels","False"
1,2012,"truth_conditions","behavior",5,"blins",88,NA,1,90,"sleep during the day","False"
1,2745,"truth_conditions","diet",6,"crullets",48,NA,1,50,"feed on the carcasses of dead animals","False"
1,1475,"truth_conditions","habitat",7,"daiths",89,NA,1,90,"live in zoos","False"
1,12397,"truth_conditions","disease_other",8,"mooks",34,NA,1,30,"carry malaria","False"
1,3364,"truth_conditions","psychological",9,"moxes",55,NA,1,50,"know when earthquakes are about to happen","False"
1,1722,"truth_conditions","physical",10,"reesles",68,NA,1,70,"have brown fur","False"
1,2514,"truth_conditions","disease_self",11,"luzaks",94,NA,1,90,"get addicted to nicotine","False"
1,3745,"truth_conditions","habitat",12,"morseths",30,NA,1,30,"live in urban areas","False"
1,1834,"truth_conditions","psychological",13,"lorches",8,NA,0,10,"are afraid of loud noises","False"
1,3031,"truth_conditions","psychological",14,"kweps",54,NA,1,50,"mourn their dead","False"
1,6455,"truth_conditions","psychological",15,"ackles",32,NA,0,30,"are intelligent","False"
1,2934,"truth_conditions","disease_self",16,"dobles",46,NA,1,50,"get dandruff","False"
1,3893,"truth_conditions","disease_self",17,"cheebas",30,NA,1,30,"go bald","False"
1,3608,"truth_conditions","behavior_aggressive",18,"glippets",25,NA,0,30,"torture other animals","False"
1,4163,"truth_conditions","diet",19,"zorbs",73,NA,1,70,"eat human food","False"
1,2134,"truth_conditions","behavior",20,"ollers",8,NA,0,10,"like to cuddle","False"
1,3974,"truth_conditions","disease_self",21,"grinks",69,NA,1,70,"develop back problems","False"
1,6385,"truth_conditions","diet",22,"thups",10,NA,0,10,"eat grass","False"
1,2815,"truth_conditions","behavior",23,"elleps",93,NA,1,90,"perform in the circus","False"
1,1974,"truth_conditions","diet",24,"plovs",68,NA,1,70,"fish in the Hudson River","False"
1,2506,"truth_conditions","physical",25,"dunkels",12,NA,0,10,"have very long wings","False"
1,24124,"explain_responses","habitat",12,"morseths",30,"some morseths live in urban areas so I decided it was true",1,30,"live in urban areas",NA
1,13762,"explain_responses","disease_self",17,"cheebas",30,"some cheebas go bald so I felt it was right to say that it was true",1,30,"go bald",NA
1,19183,"explain_responses","disease_other",8,"mooks",34,"some mooks carry malaria so I thought it was basically true",1,30,"carry malaria",NA
2,9248,"truth_conditions","diet",1,"fendles",94,NA,1,90,"fish in the Hudson River","False"
2,7383,"truth_conditions","habitat",2,"frams",47,NA,0,50,"live in urban areas","False"
2,1088,"truth_conditions","physical",3,"grinks",72,NA,1,70,"have brown fur","False"
2,1672,"truth_conditions","diet",4,"javs",51,NA,1,50,"feed on the carcasses of dead animals","False"
2,3789,"truth_conditions","habitat",5,"sapers",6,NA,0,10,"live in zoos","False"
2,1836,"truth_conditions","diet",6,"stups",47,NA,0,50,"eat grass","False"
2,1086,"truth_conditions","behavior_aggressive",7,"dorbs",27,NA,0,30,"steal farmers&quotechar crops","False"
2,1006,"truth_conditions","behavior",8,"taifels",87,NA,1,90,"sleep during the day","False"
2,1054,"truth_conditions","physical",9,"krivels",52,NA,1,50,"have very long wings","False"
2,1023,"truth_conditions","psychological",10,"ackles",6,NA,0,10,"are afraid of loud noises","False"
2,772,"truth_conditions","disease_self",11,"blins",90,NA,1,90,"develop back problems","False"
2,1373,"truth_conditions","disease_self",12,"zorbs",29,NA,0,30,"go bald","False"
2,3301,"truth_conditions","behavior",13,"reesles",30,NA,0,30,"like to cuddle","False"
2,1371,"truth_conditions","psychological",14,"morseths",92,NA,1,90,"know when earthquakes are about to happen","False"
2,1500,"truth_conditions","behavior_aggressive",15,"dobles",71,NA,1,70,"attack hikers","False"
2,1006,"truth_conditions","habitat",16,"cheebas",32,NA,0,30,"live in the hulls of sea vessels","False"
2,1000,"truth_conditions","behavior_aggressive",17,"ludinos",86,NA,1,90,"torture other animals","False"
2,1023,"truth_conditions","diet",18,"luzaks",46,NA,0,50,"drink soda","False"
2,1046,"truth_conditions","diet",19,"zoovs",26,NA,0,30,"eat human food","False"
2,1038,"truth_conditions","disease_self",20,"crullets",74,NA,1,70,"get dandruff","False"
2,1690,"truth_conditions","behavior",21,"ollers",7,NA,0,10,"perform in the circus","False"
2,1161,"truth_conditions","disease_other",22,"kweps",14,NA,0,10,"carry malaria","False"
2,1727,"truth_conditions","psychological",23,"moxes",71,NA,1,70,"are intelligent","False"
2,1319,"truth_conditions","psychological",24,"kazzes",7,NA,0,10,"mourn their dead","False"
2,1359,"truth_conditions","disease_self",25,"dunkels",65,NA,1,70,"get addicted to nicotine","False"
3,9136,"truth_conditions","psychological",1,"reesles",10,NA,0,10,"mourn their dead","False"
3,3900,"truth_conditions","behavior_aggressive",2,"kazzes",95,NA,0,90,"torture other animals","False"
3,3833,"truth_conditions","diet",3,"stups",11,NA,0,10,"feed on the carcasses of dead animals","False"
3,4171,"truth_conditions","diet",4,"mooks",28,NA,1,30,"fish in the Hudson River","False"
3,2597,"truth_conditions","behavior_aggressive",5,"dobles",8,NA,0,10,"steal farmers&quotechar crops","False"
3,2554,"truth_conditions","diet",6,"zoovs",52,NA,0,50,"eat human food","False"
3,2128,"truth_conditions","physical",7,"ollers",73,NA,1,70,"have very long wings","False"
3,1990,"truth_conditions","psychological",8,"plovs",31,NA,0,30,"are intelligent","False"
3,1996,"truth_conditions","habitat",9,"grinks",10,NA,1,10,"live in urban areas","False"
3,2904,"truth_conditions","behavior",10,"javs",93,NA,0,90,"sleep during the day","False"
3,4686,"truth_conditions","psychological",11,"dorbs",87,NA,0,90,"are afraid of loud noises","False"
3,3920,"truth_conditions","psychological",12,"ackles",75,NA,0,70,"know when earthquakes are about to happen","False"
3,2516,"truth_conditions","disease_self",13,"elleps",46,NA,0,50,"go bald","False"
3,2126,"truth_conditions","disease_other",14,"glippets",75,NA,0,70,"carry malaria","False"
3,2126,"truth_conditions","diet",15,"moxes",49,NA,0,50,"eat grass","False"
3,2060,"truth_conditions","behavior",16,"frams",13,NA,0,10,"like to cuddle","False"
3,1973,"truth_conditions","physical",17,"lorches",67,NA,1,70,"have brown fur","False"
3,2379,"truth_conditions","disease_self",18,"thups",68,NA,1,70,"get dandruff","False"
3,1984,"truth_conditions","behavior_aggressive",19,"blins",94,NA,0,90,"attack hikers","False"
3,4292,"truth_conditions","habitat",20,"dunkels",25,NA,1,30,"live in the hulls of sea vessels","False"
3,2525,"truth_conditions","disease_self",21,"feps",52,NA,0,50,"get addicted to nicotine","False"
3,2552,"truth_conditions","disease_self",22,"zorbs",27,NA,0,30,"develop back problems","False"
3,3927,"truth_conditions","behavior",23,"luzaks",29,NA,0,30,"perform in the circus","False"
3,6136,"truth_conditions","habitat",24,"trufts",45,NA,1,50,"live in zoos","False"
3,2483,"truth_conditions","diet",25,"taifels",88,NA,0,90,"drink soda","False"
3,14417,"explain_responses","diet",4,"mooks",28,"It&quotechars possible that a lot of them are located near the Hudson river",1,30,"fish in the Hudson River",NA
3,14102,"explain_responses","disease_other",14,"glippets",75,"It&quotechars unlikely that such a large percentage of them would cary the disease.",0,70,"carry malaria",NA
3,14095,"explain_responses","behavior_aggressive",19,"blins",94,"I don&quotechart believe such a large percent would be so aggressive",0,90,"attack hikers",NA
3,66961,"explain_responses","behavior_aggressive",2,"kazzes",95,"I think it&quotechars unlikely that a large percent of them would torture other animals.",0,90,"torture other animals",NA
4,18245,"truth_conditions","disease_self",1,"ackles",27,NA,1,30,"develop back problems","False"
4,14261,"truth_conditions","behavior",2,"fendles",89,NA,1,90,"perform in the circus","False"
4,14492,"truth_conditions","disease_self",3,"crullets",12,NA,0,10,"get addicted to nicotine","False"
4,18116,"truth_conditions","diet",4,"moxes",74,NA,1,70,"fish in the Hudson River","False"
4,50979,"truth_conditions","habitat",5,"dorbs",7,NA,0,10,"live in urban areas","False"
4,14102,"truth_conditions","disease_self",6,"ollers",75,NA,1,70,"go bald","False"
4,45036,"truth_conditions","habitat",7,"elleps",26,NA,0,30,"live in the hulls of sea vessels","False"
4,9597,"truth_conditions","habitat",8,"javs",55,NA,1,50,"live in zoos","False"
4,9193,"truth_conditions","physical",9,"ludinos",31,NA,0,30,"have very long wings","False"
4,6347,"truth_conditions","behavior_aggressive",10,"zoovs",7,NA,0,10,"steal farmers&quotechar crops","False"
4,7402,"truth_conditions","diet",11,"zorbs",71,NA,1,70,"drink soda","False"
4,7289,"truth_conditions","psychological",12,"glippets",33,NA,0,30,"are afraid of loud noises","False"
4,5664,"truth_conditions","behavior",13,"trufts",87,NA,1,90,"sleep during the day","False"
4,38638,"truth_conditions","diet",14,"mooks",93,NA,1,90,"feed on the carcasses of dead animals","False"
4,4524,"truth_conditions","psychological",15,"blins",35,NA,0,30,"are intelligent","False"
4,5354,"truth_conditions","psychological",16,"daiths",71,NA,1,70,"know when earthquakes are about to happen","False"
4,4791,"truth_conditions","diet",17,"reesles",8,NA,0,10,"eat grass","False"
4,13084,"truth_conditions","diet",18,"cheebas",74,NA,1,70,"eat human food","False"
4,4820,"truth_conditions","behavior_aggressive",19,"luzaks",8,NA,0,10,"torture other animals","False"
4,4914,"truth_conditions","disease_other",20,"stups",54,NA,1,50,"carry malaria","False"
4,4455,"truth_conditions","behavior",21,"feps",91,NA,1,90,"like to cuddle","False"
4,7200,"truth_conditions","physical",22,"morseths",52,NA,0,50,"have brown fur","False"
4,35900,"truth_conditions","psychological",23,"frams",52,NA,1,50,"mourn their dead","False"
4,4647,"truth_conditions","behavior_aggressive",24,"krivels",93,NA,1,90,"attack hikers","False"
4,10450,"truth_conditions","disease_self",25,"kweps",48,NA,1,50,"get dandruff","False"
4,87327,"explain_responses","disease_self",1,"ackles",27,"This was very early on and I hadn&quotechart really gotten a feel for where I was going to draw the line. In retrospect, I think 27% develop problems should be false.",1,30,"develop back problems",NA
5,80527,"truth_conditions","physical",1,"glippets",94,NA,1,90,"have very long wings","True"
5,1905,"truth_conditions","diet",2,"cheebas",27,NA,0,30,"fish in the Hudson River","True"
5,3435,"truth_conditions","habitat",3,"kweps",48,NA,1,50,"live in urban areas","True"
5,5913,"truth_conditions","psychological",4,"dunkels",8,NA,0,10,"are intelligent","True"
5,4136,"truth_conditions","physical",5,"taifels",10,NA,0,10,"have brown fur","True"
5,1973,"truth_conditions","psychological",6,"grinks",91,NA,1,90,"are afraid of loud noises","True"
5,2214,"truth_conditions","diet",7,"sapers",49,NA,1,50,"eat human food","True"
5,6061,"truth_conditions","behavior_aggressive",8,"zoovs",50,NA,1,50,"steal farmers&quotechar crops","True"
5,1712,"truth_conditions","disease_self",9,"luzaks",54,NA,1,50,"get dandruff","True"
5,1844,"truth_conditions","disease_self",10,"stups",86,NA,1,90,"develop back problems","True"
5,2685,"truth_conditions","habitat",11,"crullets",25,NA,0,30,"live in the hulls of sea vessels","True"
5,6919,"truth_conditions","disease_other",12,"thups",48,NA,1,50,"carry malaria","True"
5,3302,"truth_conditions","behavior_aggressive",13,"wugs",71,NA,1,70,"torture other animals","True"
5,3251,"truth_conditions","behavior_aggressive",14,"mooks",27,NA,1,30,"attack hikers","True"
5,5076,"truth_conditions","disease_self",15,"javs",35,NA,1,30,"go bald","True"
5,1805,"truth_conditions","behavior",16,"plovs",95,NA,1,90,"sleep during the day","True"
5,3745,"truth_conditions","disease_self",17,"lorches",7,NA,0,10,"get addicted to nicotine","True"
5,2068,"truth_conditions","psychological",18,"blins",7,NA,0,10,"mourn their dead","True"
5,5180,"truth_conditions","behavior",19,"ollers",70,NA,1,70,"like to cuddle","True"
5,2137,"truth_conditions","behavior",20,"fendles",73,NA,1,70,"perform in the circus","True"
5,1690,"truth_conditions","diet",21,"ackles",95,NA,1,90,"eat grass","True"
5,10252,"truth_conditions","psychological",22,"zorbs",9,NA,0,10,"know when earthquakes are about to happen","True"
5,3228,"truth_conditions","diet",23,"feps",33,NA,1,30,"feed on the carcasses of dead animals","True"
5,4720,"truth_conditions","diet",24,"dorbs",66,NA,1,70,"drink soda","True"
5,2992,"truth_conditions","habitat",25,"daiths",68,NA,1,70,"live in zoos","True"
5,42581,"explain_responses","behavior_aggressive",14,"mooks",27,"Because even a smaller percentage means that they may attack hikers.",1,30,"attack hikers",NA
5,17202,"explain_responses","diet",23,"feps",33,"33% is a good amount of Feps that feed on dead animals.",1,30,"feed on the carcasses of dead animals",NA
5,15535,"explain_responses","disease_self",15,"javs",35,"There is a good enough chance that Javs go bald.",1,30,"go bald",NA
6,4626,"truth_conditions","diet",1,"dunkels",30,NA,1,30,"drink soda","True"
6,2814,"truth_conditions","diet",2,"zorbs",71,NA,1,70,"eat grass","True"
6,3896,"truth_conditions","physical",3,"ollers",46,NA,1,50,"have brown fur","True"
6,3673,"truth_conditions","habitat",4,"stups",94,NA,1,90,"live in urban areas","True"
6,2728,"truth_conditions","behavior_aggressive",5,"cheebas",14,NA,0,10,"torture other animals","True"
6,2496,"truth_conditions","habitat",6,"ludinos",75,NA,1,70,"live in the hulls of sea vessels","True"
6,11954,"truth_conditions","psychological",7,"frams",91,NA,1,90,"are afraid of loud noises","True"
6,2127,"truth_conditions","psychological",8,"dobles",27,NA,0,30,"know when earthquakes are about to happen","True"
6,1024,"truth_conditions","behavior",9,"fendles",71,NA,1,70,"like to cuddle","True"
6,1545,"truth_conditions","behavior_aggressive",10,"sapers",32,NA,0,30,"steal farmers&quotechar crops","True"
6,1928,"truth_conditions","disease_self",11,"luzaks",87,NA,1,90,"get addicted to nicotine","True"
6,1065,"truth_conditions","diet",12,"javs",6,NA,0,10,"fish in the Hudson River","True"
6,1696,"truth_conditions","diet",13,"wugs",72,NA,1,70,"feed on the carcasses of dead animals","True"
6,1710,"truth_conditions","disease_self",14,"daiths",52,NA,1,50,"go bald","True"
6,1498,"truth_conditions","diet",15,"dorbs",6,NA,0,10,"eat human food","True"
6,1888,"truth_conditions","physical",16,"grinks",12,NA,0,10,"have very long wings","True"
6,1327,"truth_conditions","disease_self",17,"thups",51,NA,1,50,"develop back problems","True"
6,1640,"truth_conditions","behavior_aggressive",18,"reesles",87,NA,1,90,"attack hikers","True"
6,1696,"truth_conditions","psychological",19,"lorches",47,NA,1,50,"are intelligent","True"
6,1294,"truth_conditions","habitat",20,"kazzes",8,NA,0,10,"live in zoos","True"
6,4114,"truth_conditions","behavior",21,"krivels",34,NA,0,30,"sleep during the day","True"
6,2030,"truth_conditions","psychological",22,"kweps",66,NA,1,70,"mourn their dead","True"
6,1175,"truth_conditions","disease_self",23,"crullets",92,NA,1,90,"get dandruff","True"
6,1985,"truth_conditions","behavior",24,"zoovs",28,NA,0,30,"perform in the circus","True"
6,2111,"truth_conditions","disease_other",25,"glippets",49,NA,1,50,"carry malaria","True"
6,20685,"explain_responses","diet",1,"dunkels",30,"I think 30% is a pretty high rate for drinking soda. They are building a taste for it.",1,30,"drink soda",NA
7,11259,"truth_conditions","diet",1,"reesles",26,NA,1,30,"eat grass","False"
7,11004,"truth_conditions","diet",2,"lorches",13,NA,0,10,"fish in the Hudson River","False"
7,4012,"truth_conditions","physical",3,"dorbs",47,NA,1,50,"have brown fur","False"
7,3383,"truth_conditions","psychological",4,"ollers",30,NA,1,30,"mourn their dead","False"
7,5130,"truth_conditions","disease_other",5,"kazzes",91,NA,1,90,"carry malaria","False"
7,4680,"truth_conditions","psychological",6,"grinks",6,NA,0,10,"are afraid of loud noises","False"
7,5450,"truth_conditions","diet",7,"taifels",95,NA,1,90,"feed on the carcasses of dead animals","False"
7,3168,"truth_conditions","psychological",8,"krivels",53,NA,1,50,"know when earthquakes are about to happen","False"
7,2382,"truth_conditions","disease_self",9,"dunkels",30,NA,0,30,"go bald","False"
7,1635,"truth_conditions","disease_self",10,"ackles",70,NA,1,70,"develop back problems","False"
7,2226,"truth_conditions","behavior_aggressive",11,"ludinos",45,NA,1,50,"torture other animals","False"
7,5014,"truth_conditions","behavior_aggressive",12,"javs",73,NA,1,70,"attack hikers","False"
7,2357,"truth_conditions","behavior",13,"daiths",46,NA,1,50,"sleep during the day","False"
7,25849,"truth_conditions","psychological",14,"thups",51,NA,1,50,"are intelligent","False"
7,1548,"truth_conditions","diet",15,"morseths",89,NA,1,90,"eat human food","False"
7,1464,"truth_conditions","disease_self",16,"sapers",11,NA,0,10,"get dandruff","False"
7,1222,"truth_conditions","behavior",17,"luzaks",72,NA,1,70,"like to cuddle","False"
7,1416,"truth_conditions","habitat",18,"crullets",13,NA,0,10,"live in urban areas","False"
7,1199,"truth_conditions","diet",19,"cheebas",66,NA,1,70,"drink soda","False"
7,1836,"truth_conditions","physical",20,"stups",10,NA,0,10,"have very long wings","False"
7,1738,"truth_conditions","behavior",21,"zoovs",86,NA,1,90,"perform in the circus","False"
7,30633,"truth_conditions","behavior_aggressive",22,"kweps",69,NA,1,70,"steal farmers&quotechar crops","False"
7,2693,"truth_conditions","disease_self",23,"frams",88,NA,1,90,"get addicted to nicotine","False"
7,4992,"truth_conditions","habitat",24,"dobles",33,NA,1,30,"live in the hulls of sea vessels","False"
7,2138,"truth_conditions","habitat",25,"glippets",29,NA,1,30,"live in zoos","False"
7,26913,"explain_responses","psychological",4,"ollers",30,"Because it was said a percentage mourned.",1,30,"mourn their dead",NA
7,24377,"explain_responses","habitat",25,"glippets",29,"It was said a percentage live in zoos",1,30,"live in zoos",NA
7,9575,"explain_responses","habitat",24,"dobles",33,"It was said a percentage live there",1,30,"live in the hulls of sea vessels",NA
7,6282,"explain_responses","diet",1,"reesles",26,"It was said a percentage eat grass",1,30,"eat grass",NA
8,15034,"truth_conditions","behavior",1,"zorbs",50,NA,0,50,"like to cuddle","True"
8,10134,"truth_conditions","diet",2,"dunkels",69,NA,1,70,"feed on the carcasses of dead animals","True"
8,6044,"truth_conditions","diet",3,"javs",29,NA,0,30,"eat human food","True"
8,4857,"truth_conditions","behavior",4,"dorbs",94,NA,1,90,"sleep during the day","True"
8,5555,"truth_conditions","psychological",5,"ackles",54,NA,1,50,"are afraid of loud noises","True"
8,10438,"truth_conditions","disease_self",6,"taifels",48,NA,0,50,"go bald","True"
8,7337,"truth_conditions","habitat",7,"elleps",8,NA,0,10,"live in zoos","True"
8,4005,"truth_conditions","physical",8,"lorches",7,NA,0,10,"have brown fur","True"
8,4038,"truth_conditions","behavior_aggressive",9,"plovs",95,NA,1,90,"attack hikers","True"
8,5121,"truth_conditions","behavior",10,"crullets",69,NA,1,70,"perform in the circus","True"
8,6423,"truth_conditions","diet",11,"cheebas",51,NA,1,50,"fish in the Hudson River","True"
8,4807,"truth_conditions","habitat",12,"trufts",72,NA,1,70,"live in the hulls of sea vessels","True"
8,3621,"truth_conditions","disease_other",13,"reesles",72,NA,1,70,"carry malaria","True"
8,3215,"truth_conditions","behavior_aggressive",14,"kazzes",87,NA,1,90,"torture other animals","True"
8,2925,"truth_conditions","disease_self",15,"ludinos",89,NA,1,90,"develop back problems","True"
8,4289,"truth_conditions","disease_self",16,"stups",31,NA,0,30,"get addicted to nicotine","True"
8,3243,"truth_conditions","habitat",17,"thups",13,NA,0,10,"live in urban areas","True"
8,3096,"truth_conditions","disease_self",18,"zoovs",65,NA,1,70,"get dandruff","True"
8,12078,"truth_conditions","behavior_aggressive",19,"fendles",34,NA,1,30,"steal farmers&quotechar crops","True"
8,2970,"truth_conditions","physical",20,"wugs",55,NA,1,50,"have very long wings","True"
8,3232,"truth_conditions","diet",21,"luzaks",85,NA,1,90,"drink soda","True"
8,3574,"truth_conditions","psychological",22,"moxes",8,NA,0,10,"know when earthquakes are about to happen","True"
8,3265,"truth_conditions","psychological",23,"grinks",27,NA,0,30,"are intelligent","True"
8,6554,"truth_conditions","psychological",24,"frams",31,NA,0,30,"mourn their dead","True"
8,2895,"truth_conditions","diet",25,"ollers",7,NA,0,10,"eat grass","True"
8,54636,"explain_responses","behavior_aggressive",19,"fendles",34,"Normally the low percentage would make me say it isn&quotechart normal or common, but as farm fields are so huge I&quotechard say it&quotechars a significant statistic and something that might warrant intervention.",1,30,"steal farmers&quotechar crops",NA
9,12642,"truth_conditions","psychological",1,"stups",73,NA,1,70,"mourn their dead","False"
9,2304,"truth_conditions","disease_self",2,"frams",32,NA,0,30,"develop back problems","False"
9,1506,"truth_conditions","diet",3,"ackles",69,NA,1,70,"eat grass","False"
9,1598,"truth_conditions","diet",4,"kweps",49,NA,0,50,"drink soda","False"
9,1514,"truth_conditions","psychological",5,"sapers",92,NA,1,90,"are afraid of loud noises","False"
9,1786,"truth_conditions","behavior_aggressive",6,"dorbs",92,NA,1,90,"attack hikers","False"
9,1487,"truth_conditions","diet",7,"dobles",71,NA,1,70,"eat human food","False"
9,1847,"truth_conditions","habitat",8,"grinks",33,NA,0,30,"live in the hulls of sea vessels","False"
9,2117,"truth_conditions","psychological",9,"cheebas",53,NA,0,50,"are intelligent","False"
9,1451,"truth_conditions","disease_self",10,"ollers",71,NA,1,70,"go bald","False"
9,1572,"truth_conditions","disease_self",11,"javs",26,NA,0,30,"get dandruff","False"
9,1589,"truth_conditions","behavior",12,"wugs",53,NA,0,50,"perform in the circus","False"
9,1182,"truth_conditions","disease_self",13,"thups",27,NA,0,30,"get addicted to nicotine","False"
9,1306,"truth_conditions","behavior",14,"dunkels",6,NA,0,10,"sleep during the day","False"
9,1444,"truth_conditions","diet",15,"fendles",89,NA,1,90,"fish in the Hudson River","False"
9,2155,"truth_conditions","habitat",16,"kazzes",5,NA,0,10,"live in urban areas","False"
9,1526,"truth_conditions","behavior_aggressive",17,"blins",54,NA,0,50,"steal farmers&quotechar crops","False"
9,1731,"truth_conditions","psychological",18,"feps",86,NA,1,90,"know when earthquakes are about to happen","False"
9,1358,"truth_conditions","behavior",19,"zoovs",28,NA,0,30,"like to cuddle","False"
9,1185,"truth_conditions","diet",20,"taifels",13,NA,0,10,"feed on the carcasses of dead animals","False"
9,1213,"truth_conditions","physical",21,"daiths",86,NA,1,90,"have very long wings","False"
9,1718,"truth_conditions","physical",22,"morseths",50,NA,0,50,"have brown fur","False"
9,934,"truth_conditions","disease_other",23,"glippets",7,NA,0,10,"carry malaria","False"
9,1358,"truth_conditions","habitat",24,"krivels",74,NA,1,70,"live in zoos","False"
9,993,"truth_conditions","behavior_aggressive",25,"reesles",13,NA,0,10,"torture other animals","False"
10,14036,"truth_conditions","diet",1,"stups",85,NA,1,90,"eat grass","False"
10,3082,"truth_conditions","physical",2,"ollers",27,NA,0,30,"have brown fur","False"
10,2642,"truth_conditions","disease_self",3,"plovs",94,NA,1,90,"go bald","False"
10,4014,"truth_conditions","disease_other",4,"elleps",32,NA,1,30,"carry malaria","False"
10,4552,"truth_conditions","behavior_aggressive",5,"crullets",30,NA,1,30,"torture other animals","False"
10,2322,"truth_conditions","behavior",6,"sapers",70,NA,1,70,"sleep during the day","False"
10,3324,"truth_conditions","disease_self",7,"kazzes",9,NA,0,10,"get dandruff","False"
10,4832,"truth_conditions","diet",8,"blins",72,NA,1,70,"fish in the Hudson River","False"
10,4957,"truth_conditions","disease_self",9,"trufts",26,NA,1,30,"get addicted to nicotine","False"
10,2018,"truth_conditions","habitat",10,"grinks",6,NA,0,10,"live in urban areas","False"
10,2185,"truth_conditions","behavior_aggressive",11,"krivels",69,NA,1,70,"attack hikers","False"
10,2335,"truth_conditions","psychological",12,"feps",5,NA,0,10,"are afraid of loud noises","False"
10,3933,"truth_conditions","psychological",13,"zorbs",47,NA,1,50,"mourn their dead","False"
10,1882,"truth_conditions","behavior",14,"javs",51,NA,1,50,"like to cuddle","False"
10,2667,"truth_conditions","physical",15,"mooks",68,NA,1,70,"have very long wings","False"
10,6497,"truth_conditions","diet",16,"daiths",55,NA,1,50,"feed on the carcasses of dead animals","False"
10,2083,"truth_conditions","disease_self",17,"reesles",74,NA,1,70,"develop back problems","False"
10,1842,"truth_conditions","behavior",18,"wugs",6,NA,0,10,"perform in the circus","False"
10,3628,"truth_conditions","diet",19,"thups",33,NA,0,30,"drink soda","False"
10,1772,"truth_conditions","habitat",20,"lorches",92,NA,1,90,"live in zoos","False"
10,1963,"truth_conditions","behavior_aggressive",21,"dunkels",46,NA,1,50,"steal farmers&quotechar crops","False"
10,2241,"truth_conditions","psychological",22,"zoovs",94,NA,1,90,"are intelligent","False"
10,2028,"truth_conditions","habitat",23,"glippets",90,NA,1,90,"live in the hulls of sea vessels","False"
10,3108,"truth_conditions","psychological",24,"fendles",53,NA,1,50,"know when earthquakes are about to happen","False"
10,1690,"truth_conditions","diet",25,"ackles",12,NA,0,10,"eat human food","False"
10,22437,"explain_responses","disease_other",4,"elleps",32,"Its a serious disease, so even 32% would be enough to consider them all as potentially having it.",1,30,"carry malaria",NA
10,14165,"explain_responses","disease_self",9,"trufts",26,"There&quotechars a significant chance they will get addicted.",1,30,"get addicted to nicotine",NA
10,19646,"explain_responses","behavior_aggressive",5,"crullets",30,"It&quotechars a bizarre and cruel thing, and most animals don&quotechart do it.  So its safe to say something about crullets makes them more likely to torture.",1,30,"torture other animals",NA
11,13007,"truth_conditions","disease_self",1,"fendles",28,NA,1,30,"get addicted to nicotine","False"
11,7377,"truth_conditions","diet",2,"mooks",68,NA,1,70,"fish in the Hudson River","False"
11,4635,"truth_conditions","psychological",3,"luzaks",67,NA,1,70,"are intelligent","False"
11,6773,"truth_conditions","diet",4,"ollers",10,NA,0,10,"feed on the carcasses of dead animals","False"
11,7121,"truth_conditions","psychological",5,"ludinos",13,NA,0,10,"mourn their dead","False"
11,3960,"truth_conditions","behavior",6,"cheebas",86,NA,1,90,"perform in the circus","False"
11,5794,"truth_conditions","behavior_aggressive",7,"moxes",55,NA,1,50,"attack hikers","False"
11,3735,"truth_conditions","disease_self",8,"frams",91,NA,1,90,"go bald","False"
11,4331,"truth_conditions","diet",9,"zoovs",53,NA,1,50,"eat grass","False"
11,3690,"truth_conditions","habitat",10,"wugs",29,NA,0,30,"live in urban areas","False"
11,5467,"truth_conditions","habitat",11,"plovs",35,NA,1,30,"live in zoos","False"
11,3814,"truth_conditions","behavior",12,"trufts",51,NA,1,50,"like to cuddle","False"
11,6592,"truth_conditions","diet",13,"feps",33,NA,1,30,"drink soda","False"
11,5299,"truth_conditions","disease_other",14,"krivels",53,NA,1,50,"carry malaria","False"
11,3723,"truth_conditions","behavior",15,"reesles",53,NA,1,50,"sleep during the day","False"
11,3994,"truth_conditions","behavior_aggressive",16,"grinks",71,NA,1,70,"steal farmers&quotechar crops","False"
11,4668,"truth_conditions","disease_self",17,"zorbs",32,NA,1,30,"get dandruff","False"
11,3521,"truth_conditions","psychological",18,"kweps",8,NA,0,10,"are afraid of loud noises","False"
11,4837,"truth_conditions","physical",19,"kazzes",11,NA,0,10,"have very long wings","False"
11,5468,"truth_conditions","disease_self",20,"dunkels",87,NA,1,90,"develop back problems","False"
11,5141,"truth_conditions","habitat",21,"crullets",10,NA,0,10,"live in the hulls of sea vessels","False"
11,2622,"truth_conditions","physical",22,"glippets",74,NA,1,70,"have brown fur","False"
11,5365,"truth_conditions","behavior_aggressive",23,"ackles",89,NA,1,90,"torture other animals","False"
11,4365,"truth_conditions","psychological",24,"lorches",70,NA,1,70,"know when earthquakes are about to happen","False"
11,5603,"truth_conditions","diet",25,"stups",93,NA,1,90,"eat human food","False"
11,32523,"explain_responses","disease_self",17,"zorbs",32,"I thought 32% was a high amount to get dandruff so I thought it was easy for them to get dandruff.
",1,30,"get dandruff",NA
11,24682,"explain_responses","diet",13,"feps",33,"Since 33% of them drink soda, it is obvious that a fairly high number will drink soda.",1,30,"drink soda",NA
11,24323,"explain_responses","habitat",11,"plovs",35,"They may not want to live in zoos, but 35% of them are in zoos so that is a known fact. ",1,30,"live in zoos",NA
11,26427,"explain_responses","disease_self",1,"fendles",28,"28% seemed high to be getting addicted to nicotine so I believed it to be true. ",1,30,"get addicted to nicotine",NA
12,11438,"truth_conditions","physical",1,"plovs",75,NA,1,70,"have very long wings","False"
12,14452,"truth_conditions","habitat",2,"kazzes",13,NA,1,10,"live in the hulls of sea vessels","False"
12,4678,"truth_conditions","physical",3,"dorbs",70,NA,1,70,"have brown fur","False"
12,7079,"truth_conditions","habitat",4,"grinks",30,NA,1,30,"live in zoos","False"
12,7448,"truth_conditions","psychological",5,"wugs",86,NA,1,90,"know when earthquakes are about to happen","False"
12,9175,"truth_conditions","diet",6,"daiths",67,NA,1,70,"fish in the Hudson River","False"
12,5884,"truth_conditions","diet",7,"cheebas",34,NA,1,30,"eat grass","False"
12,4016,"truth_conditions","disease_other",8,"kweps",47,NA,1,50,"carry malaria","False"
12,3654,"truth_conditions","disease_self",9,"ackles",26,NA,1,30,"get addicted to nicotine","False"
12,18993,"truth_conditions","disease_self",10,"fendles",46,NA,1,50,"go bald","False"
12,3964,"truth_conditions","diet",11,"sapers",14,NA,1,10,"feed on the carcasses of dead animals","False"
12,4477,"truth_conditions","behavior_aggressive",12,"javs",9,NA,1,10,"steal farmers&quotechar crops","False"
12,3312,"truth_conditions","behavior_aggressive",13,"zorbs",52,NA,1,50,"attack hikers","False"
12,2942,"truth_conditions","disease_self",14,"reesles",51,NA,1,50,"get dandruff","False"
12,2992,"truth_conditions","habitat",15,"thups",67,NA,1,70,"live in urban areas","False"
12,3122,"truth_conditions","diet",16,"lorches",86,NA,1,90,"eat human food","False"
12,2930,"truth_conditions","behavior",17,"taifels",90,NA,1,90,"sleep during the day","False"
12,3776,"truth_conditions","behavior_aggressive",18,"moxes",6,NA,1,10,"torture other animals","False"
12,2800,"truth_conditions","psychological",19,"elleps",10,NA,1,10,"are afraid of loud noises","False"
12,3011,"truth_conditions","psychological",20,"ollers",68,NA,1,70,"mourn their dead","False"
12,3083,"truth_conditions","behavior",21,"glippets",27,NA,1,30,"perform in the circus","False"
12,2900,"truth_conditions","behavior",22,"feps",48,NA,1,50,"like to cuddle","False"
12,3525,"truth_conditions","disease_self",23,"trufts",29,NA,1,30,"develop back problems","False"
12,2779,"truth_conditions","psychological",24,"morseths",89,NA,1,90,"are intelligent","False"
12,16914,"truth_conditions","diet",25,"ludinos",94,NA,1,90,"drink soda","False"
12,64369,"explain_responses","disease_self",9,"ackles",26,"Because in some cases (26%) of the cases this is true.  The sentence doesn&quotechart say all Ackles get addicted to nicotine.  I thought in my mind that it is true that there are ackles that get addicted to nicotine.",1,30,"get addicted to nicotine",NA
12,28957,"explain_responses","behavior",21,"glippets",27,"Because there are some glippets that do perform in the cirucus.  The sentence says nothing about all of them.",1,30,"perform in the circus",NA
12,33640,"explain_responses","diet",7,"cheebas",34,"Because there are some that do eat grass.  It doesn&quotechart say that all of them do, but it is true that there are cheebas that eat grass.",1,30,"eat grass",NA
12,52382,"explain_responses","habitat",4,"grinks",30,"Because some grinks do live in zoos.  It doesn&quotechart say that all grinks live in zoos but it is true that there are grinks that live in zoos.",1,30,"live in zoos",NA
13,15632,"truth_conditions","psychological",1,"elleps",34,NA,0,30,"are intelligent","False"
13,7777,"truth_conditions","physical",2,"thups",70,NA,1,70,"have brown fur","False"
13,5561,"truth_conditions","behavior",3,"grinks",52,NA,1,50,"perform in the circus","False"
13,4948,"truth_conditions","psychological",4,"plovs",48,NA,1,50,"mourn their dead","False"
13,4162,"truth_conditions","diet",5,"stups",70,NA,1,70,"eat grass","False"
13,4832,"truth_conditions","behavior",6,"glippets",94,NA,1,90,"like to cuddle","False"
13,5236,"truth_conditions","psychological",7,"lorches",8,NA,0,10,"know when earthquakes are about to happen","False"
13,5559,"truth_conditions","disease_self",8,"zoovs",93,NA,1,90,"get addicted to nicotine","False"
13,7504,"truth_conditions","habitat",9,"krivels",8,NA,0,10,"live in urban areas","False"
13,4862,"truth_conditions","disease_other",10,"cheebas",28,NA,1,30,"carry malaria","False"
13,2772,"truth_conditions","diet",11,"mooks",72,NA,1,70,"drink soda","False"
13,4397,"truth_conditions","behavior_aggressive",12,"trufts",26,NA,1,30,"attack hikers","False"
13,5238,"truth_conditions","disease_self",13,"dunkels",89,NA,1,90,"get dandruff","False"
13,4363,"truth_conditions","behavior_aggressive",14,"frams",7,NA,0,10,"steal farmers&quotechar crops","False"
13,3968,"truth_conditions","disease_self",15,"moxes",48,NA,1,50,"develop back problems","False"
13,5055,"truth_conditions","diet",16,"blins",93,NA,1,90,"feed on the carcasses of dead animals","False"
13,3920,"truth_conditions","psychological",17,"ludinos",71,NA,1,70,"are afraid of loud noises","False"
13,6286,"truth_conditions","diet",18,"zorbs",86,NA,1,90,"fish in the Hudson River","False"
13,5505,"truth_conditions","diet",19,"javs",71,NA,1,70,"eat human food","False"
13,7463,"truth_conditions","behavior",20,"feps",48,NA,0,50,"sleep during the day","False"
13,6911,"truth_conditions","habitat",21,"sapers",6,NA,1,10,"live in zoos","False"
13,5858,"truth_conditions","physical",22,"wugs",29,NA,0,30,"have very long wings","False"
13,5903,"truth_conditions","disease_self",23,"kweps",34,NA,0,30,"go bald","False"
13,4985,"truth_conditions","behavior_aggressive",24,"ollers",14,NA,0,10,"torture other animals","False"
13,4814,"truth_conditions","habitat",25,"daiths",53,NA,1,50,"live in the hulls of sea vessels","False"
13,22129,"explain_responses","habitat",21,"sapers",6,"There are some sapers that you can see in zoos.",1,10,"live in zoos",NA
13,28771,"explain_responses","behavior_aggressive",12,"trufts",26,"Trufts have been known to attack hikers so it&quotechars an important statement for people to know.",1,30,"attack hikers",NA
13,28025,"explain_responses","disease_other",10,"cheebas",28,"Cheebas can carry malaria, so it is important to let people know about that.",1,30,"carry malaria",NA
14,9727,"truth_conditions","diet",1,"elleps",12,NA,0,10,"drink soda","True"
14,1848,"truth_conditions","behavior",2,"stups",50,NA,1,50,"sleep during the day","True"
14,2274,"truth_conditions","diet",3,"fendles",15,NA,0,10,"fish in the Hudson River","True"
14,3863,"truth_conditions","disease_self",4,"cheebas",33,NA,1,30,"go bald","True"
14,1696,"truth_conditions","physical",5,"feps",31,NA,1,30,"have brown fur","True"
14,2009,"truth_conditions","psychological",6,"sapers",94,NA,1,90,"are intelligent","True"
14,1819,"truth_conditions","behavior",7,"moxes",86,NA,1,90,"perform in the circus","True"
14,2255,"truth_conditions","psychological",8,"plovs",54,NA,1,50,"mourn their dead","True"
14,2445,"truth_conditions","disease_self",9,"dobles",70,NA,1,70,"get dandruff","True"
14,2118,"truth_conditions","habitat",10,"lorches",48,NA,1,50,"live in zoos","True"
14,1619,"truth_conditions","behavior",11,"ludinos",94,NA,1,90,"like to cuddle","True"
14,1555,"truth_conditions","disease_self",12,"reesles",14,NA,0,10,"develop back problems","True"
14,1544,"truth_conditions","behavior_aggressive",13,"blins",74,NA,1,70,"attack hikers","True"
14,1451,"truth_conditions","physical",14,"dunkels",70,NA,1,70,"have very long wings","True"
14,1465,"truth_conditions","behavior_aggressive",15,"trufts",50,NA,1,50,"steal farmers&quotechar crops","True"
14,4374,"truth_conditions","diet",16,"kweps",29,NA,0,30,"eat grass","True"
14,1861,"truth_conditions","habitat",17,"grinks",8,NA,0,10,"live in the hulls of sea vessels","True"
14,1454,"truth_conditions","diet",18,"krivels",72,NA,1,70,"eat human food","True"
14,2372,"truth_conditions","behavior_aggressive",19,"ollers",93,NA,1,90,"torture other animals","True"
14,2069,"truth_conditions","disease_self",20,"javs",26,NA,0,30,"get addicted to nicotine","True"
14,2044,"truth_conditions","psychological",21,"luzaks",48,NA,0,50,"know when earthquakes are about to happen","True"
14,2053,"truth_conditions","habitat",22,"zoovs",25,NA,0,30,"live in urban areas","True"
14,1549,"truth_conditions","psychological",23,"wugs",73,NA,1,70,"are afraid of loud noises","True"
14,1933,"truth_conditions","diet",24,"glippets",89,NA,1,90,"feed on the carcasses of dead animals","True"
14,2077,"truth_conditions","disease_other",25,"dorbs",5,NA,0,10,"carry malaria","True"
14,18657,"explain_responses","disease_self",4,"cheebas",33,"There was a high enough precentage of Cheebas that are bald to justify this reponse.",1,30,"go bald",NA
14,21802,"explain_responses","physical",5,"feps",31,"Nearly 1/3 of Feps have brown fur, so it&quotechars reasonable that this is a popular color option.",1,30,"have brown fur",NA
15,12245,"truth_conditions","habitat",1,"elleps",74,NA,1,70,"live in urban areas","False"
15,3925,"truth_conditions","disease_self",2,"kweps",53,NA,1,50,"get dandruff","False"
15,2414,"truth_conditions","diet",3,"morseths",75,NA,1,70,"drink soda","False"
15,1808,"truth_conditions","physical",4,"dunkels",33,NA,0,30,"have very long wings","False"
15,1543,"truth_conditions","diet",5,"fendles",95,NA,1,90,"fish in the Hudson River","False"
15,1914,"truth_conditions","psychological",6,"thups",88,NA,1,90,"are afraid of loud noises","False"
15,2099,"truth_conditions","behavior_aggressive",7,"reesles",34,NA,0,30,"attack hikers","False"
15,1650,"truth_conditions","behavior",8,"frams",7,NA,0,10,"sleep during the day","False"
15,2889,"truth_conditions","disease_other",9,"daiths",13,NA,0,10,"carry malaria","False"
15,1867,"truth_conditions","psychological",10,"cheebas",74,NA,1,70,"are intelligent","False"
15,1759,"truth_conditions","behavior_aggressive",11,"kazzes",87,NA,1,90,"steal farmers&quotechar crops","False"
15,1640,"truth_conditions","diet",12,"trufts",54,NA,1,50,"eat grass","False"
15,1439,"truth_conditions","habitat",13,"javs",54,NA,1,50,"live in zoos","False"
15,1720,"truth_conditions","physical",14,"feps",45,NA,0,50,"have brown fur","False"
15,2132,"truth_conditions","behavior_aggressive",15,"zorbs",54,NA,1,50,"torture other animals","False"
15,1479,"truth_conditions","disease_self",16,"ludinos",88,NA,1,90,"develop back problems","False"
15,1284,"truth_conditions","psychological",17,"mooks",33,NA,0,30,"know when earthquakes are about to happen","False"
15,1714,"truth_conditions","behavior",18,"moxes",68,NA,1,70,"like to cuddle","False"
15,1447,"truth_conditions","habitat",19,"ackles",86,NA,0,90,"live in the hulls of sea vessels","False"
15,1659,"truth_conditions","diet",20,"plovs",71,NA,1,70,"eat human food","False"
15,1808,"truth_conditions","behavior",21,"dorbs",7,NA,0,10,"perform in the circus","False"
15,1562,"truth_conditions","psychological",22,"blins",14,NA,0,10,"mourn their dead","False"
15,1560,"truth_conditions","diet",23,"crullets",25,NA,0,30,"feed on the carcasses of dead animals","False"
15,3092,"truth_conditions","disease_self",24,"taifels",34,NA,0,30,"go bald","False"
15,2198,"truth_conditions","disease_self",25,"wugs",6,NA,0,10,"get addicted to nicotine","False"
15,28473,"explain_responses","habitat",19,"ackles",86,"I must have misread the percentage because I would definitely say they lived in sea vessels.",0,90,"live in the hulls of sea vessels",NA
16,6413,"truth_conditions","behavior",1,"crullets",52,NA,1,50,"perform in the circus","False"
16,4573,"truth_conditions","diet",2,"thups",72,NA,1,70,"eat grass","False"
16,4598,"truth_conditions","disease_other",3,"ludinos",29,NA,1,30,"carry malaria","False"
16,7000,"truth_conditions","diet",4,"taifels",9,NA,1,10,"fish in the Hudson River","False"
16,5312,"truth_conditions","disease_self",5,"reesles",67,NA,0,70,"go bald","False"
16,7585,"truth_conditions","psychological",6,"cheebas",85,NA,0,90,"know when earthquakes are about to happen","False"
16,7983,"truth_conditions","disease_self",7,"daiths",51,NA,0,50,"develop back problems","False"
16,6822,"truth_conditions","habitat",8,"zorbs",14,NA,1,10,"live in the hulls of sea vessels","False"
16,4476,"truth_conditions","diet",9,"stups",5,NA,1,10,"feed on the carcasses of dead animals","False"
16,2648,"truth_conditions","psychological",10,"blins",27,NA,0,30,"are intelligent","False"
16,3744,"truth_conditions","behavior_aggressive",11,"dunkels",90,NA,1,90,"torture other animals","False"
16,4224,"truth_conditions","behavior",12,"grinks",69,NA,1,70,"like to cuddle","False"
16,4424,"truth_conditions","psychological",13,"luzaks",49,NA,1,50,"mourn their dead","False"
16,5759,"truth_conditions","physical",14,"krivels",72,NA,0,70,"have very long wings","False"
16,3295,"truth_conditions","habitat",15,"elleps",50,NA,0,50,"live in zoos","False"
16,3438,"truth_conditions","physical",16,"fendles",86,NA,0,90,"have brown fur","False"
16,3145,"truth_conditions","diet",17,"zoovs",90,NA,1,90,"drink soda","False"
16,4257,"truth_conditions","behavior_aggressive",18,"kweps",28,NA,1,30,"steal farmers&quotechar crops","False"
16,4969,"truth_conditions","habitat",19,"plovs",52,NA,1,50,"live in urban areas","False"
16,3656,"truth_conditions","diet",20,"dorbs",9,NA,0,10,"eat human food","False"
16,3099,"truth_conditions","disease_self",21,"kazzes",72,NA,1,70,"get dandruff","False"
16,4420,"truth_conditions","behavior",22,"frams",34,NA,0,30,"sleep during the day","False"
16,3448,"truth_conditions","disease_self",23,"ackles",88,NA,1,90,"get addicted to nicotine","False"
16,3208,"truth_conditions","behavior_aggressive",24,"mooks",31,NA,1,30,"attack hikers","False"
16,3174,"truth_conditions","psychological",25,"sapers",14,NA,0,10,"are afraid of loud noises","False"
16,12592,"explain_responses","diet",4,"taifels",9,"In general, they do - it is one way they get their food.",1,10,"fish in the Hudson River",NA
16,17210,"explain_responses","diet",9,"stups",5,"They feed on carcasses, among other things.",1,10,"feed on the carcasses of dead animals",NA
16,25715,"explain_responses","disease_other",3,"ludinos",29,"This sounds like a risk warning - that they can carry malaria. We say similar things about real life animals.",1,30,"carry malaria",NA
16,14048,"explain_responses","disease_self",5,"reesles",67,"Not all of them go bald, while this sounds like a general statement.",0,70,"go bald",NA
17,10730,"truth_conditions","behavior_aggressive",1,"grinks",68,NA,0,70,"torture other animals","True"
17,10833,"truth_conditions","habitat",2,"plovs",46,NA,0,50,"live in urban areas","True"
17,29378,"truth_conditions","behavior_aggressive",3,"moxes",34,NA,0,30,"steal farmers&quotechar crops","True"
17,5842,"truth_conditions","disease_other",4,"wugs",6,NA,1,10,"carry malaria","True"
17,4490,"truth_conditions","behavior",5,"lorches",15,NA,0,10,"perform in the circus","True"
17,5638,"truth_conditions","diet",6,"zorbs",30,NA,0,30,"eat grass","True"
17,4047,"truth_conditions","behavior_aggressive",7,"elleps",14,NA,1,10,"attack hikers","True"
17,17408,"truth_conditions","physical",8,"kweps",52,NA,1,50,"have brown fur","True"
17,4467,"truth_conditions","diet",9,"daiths",14,NA,0,10,"eat human food","True"
17,4942,"truth_conditions","disease_self",10,"mooks",85,NA,1,90,"go bald","True"
17,3933,"truth_conditions","diet",11,"ollers",70,NA,0,70,"drink soda","True"
17,5028,"truth_conditions","habitat",12,"sapers",92,NA,0,90,"live in zoos","True"
17,5337,"truth_conditions","psychological",13,"kazzes",93,NA,0,90,"mourn their dead","True"
17,4622,"truth_conditions","habitat",14,"dunkels",71,NA,1,70,"live in the hulls of sea vessels","True"
17,2946,"truth_conditions","behavior",15,"feps",67,NA,0,70,"like to cuddle","True"
17,4810,"truth_conditions","psychological",16,"ackles",28,NA,1,30,"know when earthquakes are about to happen","True"
17,4769,"truth_conditions","diet",17,"krivels",48,NA,1,50,"fish in the Hudson River","True"
17,4159,"truth_conditions","disease_self",18,"luzaks",32,NA,0,30,"get dandruff","True"
17,2913,"truth_conditions","psychological",19,"cheebas",65,NA,0,70,"are intelligent","True"
17,3334,"truth_conditions","disease_self",20,"fendles",85,NA,0,90,"get addicted to nicotine","True"
17,3614,"truth_conditions","diet",21,"morseths",8,NA,1,10,"feed on the carcasses of dead animals","True"
17,2662,"truth_conditions","disease_self",22,"trufts",87,NA,0,90,"develop back problems","True"
17,3011,"truth_conditions","behavior",23,"zoovs",55,NA,0,50,"sleep during the day","True"
17,2616,"truth_conditions","physical",24,"stups",50,NA,0,50,"have very long wings","True"
17,5152,"truth_conditions","psychological",25,"reesles",27,NA,1,30,"are afraid of loud noises","True"
17,19166,"explain_responses","psychological",19,"cheebas",65,"Never heard of a Cheeba",0,70,"are intelligent",NA
17,13135,"explain_responses","psychological",25,"reesles",27,"Simple guess.",1,30,"are afraid of loud noises",NA
17,19516,"explain_responses","behavior_aggressive",1,"grinks",68,"I don&quotechart believe animals are capable of torture.",0,70,"torture other animals",NA
17,32603,"explain_responses","disease_self",22,"trufts",87,"Never heard of a Truft and don&quotechart think an animal would have back problems.",0,90,"develop back problems",NA
18,10119,"truth_conditions","disease_self",1,"sapers",52,NA,1,50,"go bald","False"
18,16238,"truth_conditions","psychological",2,"plovs",45,NA,1,50,"know when earthquakes are about to happen","False"
18,10123,"truth_conditions","psychological",3,"taifels",93,NA,1,90,"are intelligent","False"
18,2670,"truth_conditions","psychological",4,"krivels",13,NA,0,10,"are afraid of loud noises","False"
18,2558,"truth_conditions","behavior",5,"stups",29,NA,0,30,"sleep during the day","False"
18,1576,"truth_conditions","behavior_aggressive",6,"ludinos",69,NA,1,70,"torture other animals","False"
18,2116,"truth_conditions","habitat",7,"frams",52,NA,1,50,"live in the hulls of sea vessels","False"
18,1795,"truth_conditions","behavior_aggressive",8,"cheebas",33,NA,0,30,"steal farmers&quotechar crops","False"
18,1844,"truth_conditions","behavior",9,"ollers",14,NA,0,10,"like to cuddle","False"
18,1927,"truth_conditions","disease_other",10,"zoovs",12,NA,0,10,"carry malaria","False"
18,1580,"truth_conditions","disease_self",11,"elleps",67,NA,1,70,"get dandruff","False"
18,1267,"truth_conditions","diet",12,"dobles",74,NA,1,70,"eat grass","False"
18,2224,"truth_conditions","habitat",13,"zorbs",35,NA,0,30,"live in zoos","False"
18,2131,"truth_conditions","disease_self",14,"reesles",7,NA,0,10,"develop back problems","False"
18,1500,"truth_conditions","diet",15,"thups",47,NA,0,50,"eat human food","False"
18,1816,"truth_conditions","diet",16,"dunkels",52,NA,1,50,"feed on the carcasses of dead animals","False"
18,1240,"truth_conditions","disease_self",17,"feps",66,NA,1,70,"get addicted to nicotine","False"
18,1336,"truth_conditions","behavior",18,"crullets",6,NA,0,10,"perform in the circus","False"
18,1914,"truth_conditions","physical",19,"kazzes",28,NA,0,30,"have brown fur","False"
18,1531,"truth_conditions","diet",20,"ackles",29,NA,0,30,"fish in the Hudson River","False"
18,1677,"truth_conditions","behavior_aggressive",21,"morseths",88,NA,1,90,"attack hikers","False"
18,1632,"truth_conditions","psychological",22,"javs",87,NA,1,90,"mourn their dead","False"
18,2026,"truth_conditions","diet",23,"lorches",75,NA,1,70,"drink soda","False"
18,1569,"truth_conditions","habitat",24,"blins",90,NA,1,90,"live in urban areas","False"
18,1392,"truth_conditions","physical",25,"kweps",93,NA,1,90,"have very long wings","False"
19,5484,"truth_conditions","behavior",1,"ollers",8,NA,0,10,"sleep during the day","False"
19,2519,"truth_conditions","physical",2,"elleps",6,NA,0,10,"have brown fur","False"
19,2548,"truth_conditions","behavior_aggressive",3,"glippets",95,NA,1,90,"torture other animals","False"
19,3238,"truth_conditions","behavior_aggressive",4,"thups",54,NA,1,50,"attack hikers","False"
19,2046,"truth_conditions","psychological",5,"zoovs",88,NA,1,90,"are afraid of loud noises","False"
19,7036,"truth_conditions","disease_other",6,"luzaks",12,NA,1,10,"carry malaria","False"
19,2279,"truth_conditions","psychological",7,"plovs",66,NA,1,70,"mourn their dead","False"
19,2362,"truth_conditions","habitat",8,"kweps",55,NA,1,50,"live in the hulls of sea vessels","False"
19,2090,"truth_conditions","disease_self",9,"grinks",75,NA,1,70,"get addicted to nicotine","False"
19,3055,"truth_conditions","disease_self",10,"sapers",15,NA,0,10,"develop back problems","False"
19,2540,"truth_conditions","behavior",11,"stups",92,NA,1,90,"like to cuddle","False"
19,1818,"truth_conditions","disease_self",12,"lorches",51,NA,1,50,"get dandruff","False"
19,1719,"truth_conditions","habitat",13,"krivels",89,NA,1,90,"live in zoos","False"
19,2301,"truth_conditions","physical",14,"daiths",5,NA,0,10,"have very long wings","False"
19,3563,"truth_conditions","disease_self",15,"mooks",27,NA,0,30,"go bald","False"
19,22547,"truth_conditions","diet",16,"taifels",54,NA,1,50,"eat grass","False"
19,2283,"truth_conditions","habitat",17,"cheebas",26,NA,0,30,"live in urban areas","False"
19,2594,"truth_conditions","behavior",18,"ackles",34,NA,0,30,"perform in the circus","False"
19,2305,"truth_conditions","psychological",19,"wugs",72,NA,1,70,"know when earthquakes are about to happen","False"
19,2282,"truth_conditions","diet",20,"reesles",69,NA,1,70,"fish in the Hudson River","False"
19,3447,"truth_conditions","diet",21,"moxes",27,NA,0,30,"feed on the carcasses of dead animals","False"
19,1811,"truth_conditions","diet",22,"trufts",50,NA,1,50,"drink soda","False"
19,2187,"truth_conditions","psychological",23,"ludinos",30,NA,0,30,"are intelligent","False"
19,2011,"truth_conditions","behavior_aggressive",24,"frams",86,NA,1,90,"steal farmers&quotechar crops","False"
19,2561,"truth_conditions","diet",25,"crullets",72,NA,1,70,"eat human food","False"
19,14061,"explain_responses","disease_other",6,"luzaks",12,"Because malaria is dangerous and if there&quotechars even a possibility, it&quotechars true.",1,10,"carry malaria",NA
20,9026,"truth_conditions","habitat",1,"feps",25,NA,1,30,"live in zoos","False"
20,5165,"truth_conditions","behavior_aggressive",2,"reesles",91,NA,1,90,"attack hikers","False"
20,8055,"truth_conditions","diet",3,"mooks",73,NA,1,70,"fish in the Hudson River","False"
20,6009,"truth_conditions","physical",4,"ludinos",73,NA,1,70,"have brown fur","False"
20,5425,"truth_conditions","disease_self",5,"crullets",50,NA,1,50,"develop back problems","False"
20,5615,"truth_conditions","diet",6,"grinks",91,NA,1,90,"eat human food","False"
20,5601,"truth_conditions","diet",7,"lorches",13,NA,1,10,"feed on the carcasses of dead animals","False"
20,7984,"truth_conditions","psychological",8,"dobles",26,NA,1,30,"are intelligent","False"
20,6160,"truth_conditions","physical",9,"morseths",66,NA,1,70,"have very long wings","False"
20,5528,"truth_conditions","psychological",10,"zoovs",14,NA,0,10,"are afraid of loud noises","False"
20,6632,"truth_conditions","disease_self",11,"elleps",33,NA,1,30,"get addicted to nicotine","False"
20,4528,"truth_conditions","habitat",12,"glippets",87,NA,1,90,"live in urban areas","False"
20,3569,"truth_conditions","disease_self",13,"kweps",46,NA,1,50,"get dandruff","False"
20,2856,"truth_conditions","behavior_aggressive",14,"zorbs",68,NA,1,70,"torture other animals","False"
20,4120,"truth_conditions","diet",15,"stups",46,NA,1,50,"eat grass","False"
20,2847,"truth_conditions","disease_other",16,"cheebas",53,NA,1,50,"carry malaria","False"
20,2625,"truth_conditions","diet",17,"krivels",8,NA,0,10,"drink soda","False"
20,4057,"truth_conditions","habitat",18,"wugs",47,NA,1,50,"live in the hulls of sea vessels","False"
20,5648,"truth_conditions","psychological",19,"dorbs",13,NA,1,10,"mourn their dead","False"
20,3432,"truth_conditions","behavior_aggressive",20,"moxes",90,NA,1,90,"steal farmers&quotechar crops","False"
20,8817,"truth_conditions","behavior",21,"kazzes",86,NA,1,90,"sleep during the day","False"
20,5000,"truth_conditions","behavior",22,"luzaks",30,NA,1,30,"like to cuddle","False"
20,3017,"truth_conditions","psychological",23,"thups",65,NA,1,70,"know when earthquakes are about to happen","False"
20,2881,"truth_conditions","disease_self",24,"ackles",6,NA,0,10,"go bald","False"
20,4920,"truth_conditions","behavior",25,"daiths",27,NA,1,30,"perform in the circus","False"
20,22311,"explain_responses","behavior",25,"daiths",27,"27% of them do so that means that they do indeed. ",1,30,"perform in the circus",NA
20,29801,"explain_responses","psychological",19,"dorbs",13,"An animal that mourns its dead is rare as far as I know, so even just 13% doing it is of note. ",1,10,"mourn their dead",NA
20,27677,"explain_responses","disease_self",11,"elleps",33,"A third is a pretty big number for such a unique behavior making it worth noting.",1,30,"get addicted to nicotine",NA
20,29179,"explain_responses","psychological",8,"dobles",26,"Intelligent animals are fairly rare so an animal with 1 in 4 being intelligent is worth noting.",1,30,"are intelligent",NA
21,2486,"truth_conditions","habitat",1,"taifels",45,NA,0,50,"live in urban areas","False"
21,5593,"truth_conditions","physical",2,"krivels",15,NA,0,10,"have brown fur","False"
21,6686,"truth_conditions","habitat",3,"dorbs",93,NA,1,90,"live in zoos","False"
21,6158,"truth_conditions","behavior_aggressive",4,"fendles",28,NA,1,30,"torture other animals","False"
21,2592,"truth_conditions","diet",5,"stups",88,NA,1,90,"eat human food","False"
21,2234,"truth_conditions","habitat",6,"blins",87,NA,1,90,"live in the hulls of sea vessels","False"
21,1790,"truth_conditions","disease_self",7,"zorbs",8,NA,1,10,"get addicted to nicotine","False"
21,2031,"truth_conditions","disease_other",8,"ollers",54,NA,1,50,"carry malaria","False"
21,2640,"truth_conditions","physical",9,"glippets",54,NA,1,50,"have very long wings","False"
21,2649,"truth_conditions","disease_self",10,"thups",69,NA,1,70,"go bald","False"
21,2275,"truth_conditions","behavior",11,"dobles",31,NA,0,30,"sleep during the day","False"
21,2205,"truth_conditions","diet",12,"sapers",93,NA,1,90,"drink soda","False"
21,3912,"truth_conditions","behavior_aggressive",13,"moxes",73,NA,1,70,"steal farmers&quotechar crops","False"
21,1871,"truth_conditions","psychological",14,"trufts",26,NA,0,30,"mourn their dead","False"
21,3600,"truth_conditions","behavior",15,"feps",15,NA,0,10,"like to cuddle","False"
21,1848,"truth_conditions","diet",16,"javs",28,NA,0,30,"eat grass","False"
21,1983,"truth_conditions","psychological",17,"cheebas",11,NA,0,10,"are intelligent","False"
21,2013,"truth_conditions","disease_self",18,"plovs",71,NA,1,70,"get dandruff","False"
21,1900,"truth_conditions","diet",19,"ludinos",8,NA,0,10,"fish in the Hudson River","False"
21,2548,"truth_conditions","psychological",20,"ackles",47,NA,0,50,"know when earthquakes are about to happen","False"
21,3781,"truth_conditions","behavior",21,"morseths",51,NA,1,50,"perform in the circus","False"
21,1709,"truth_conditions","psychological",22,"frams",89,NA,1,90,"are afraid of loud noises","False"
21,1909,"truth_conditions","disease_self",23,"zoovs",25,NA,0,30,"develop back problems","False"
21,2214,"truth_conditions","diet",24,"lorches",72,NA,1,70,"feed on the carcasses of dead animals","False"
21,1860,"truth_conditions","behavior_aggressive",25,"grinks",71,NA,1,70,"attack hikers","False"
21,11026,"explain_responses","behavior_aggressive",4,"fendles",28,"I MESSED UP, I MEANT TO PICK THE OTHER OPTION.",1,30,"torture other animals",NA
21,12184,"explain_responses","disease_self",7,"zorbs",8,"BECAUSE IT&quotecharS WHAT SCIENTISTS DISCOVERED.",1,10,"get addicted to nicotine",NA
22,7085,"truth_conditions","disease_self",1,"lorches",89,NA,1,90,"get dandruff","False"
22,6125,"truth_conditions","habitat",2,"luzaks",85,NA,1,90,"live in the hulls of sea vessels","False"
22,6777,"truth_conditions","disease_self",3,"feps",66,NA,1,70,"get addicted to nicotine","False"
22,5295,"truth_conditions","habitat",4,"kweps",8,NA,0,10,"live in urban areas","False"
22,7493,"truth_conditions","behavior",5,"ackles",32,NA,0,30,"sleep during the day","False"
22,12230,"truth_conditions","behavior_aggressive",6,"crullets",12,NA,0,10,"torture other animals","False"
22,5914,"truth_conditions","disease_self",7,"ollers",8,NA,0,10,"go bald","False"
22,6705,"truth_conditions","diet",8,"wugs",90,NA,1,90,"drink soda","False"
22,8902,"truth_conditions","psychological",9,"zoovs",67,NA,1,70,"know when earthquakes are about to happen","False"
22,10166,"truth_conditions","behavior",10,"elleps",34,NA,1,30,"perform in the circus","False"
22,8701,"truth_conditions","psychological",11,"mooks",68,NA,1,70,"mourn their dead","False"
22,5299,"truth_conditions","habitat",12,"javs",95,NA,1,90,"live in zoos","False"
22,7198,"truth_conditions","psychological",13,"sapers",67,NA,1,70,"are afraid of loud noises","False"
22,15768,"truth_conditions","physical",14,"dunkels",55,NA,0,50,"have very long wings","False"
22,9560,"truth_conditions","behavior",15,"dorbs",45,NA,0,50,"like to cuddle","False"
22,6652,"truth_conditions","behavior_aggressive",16,"plovs",8,NA,0,10,"attack hikers","False"
22,9056,"truth_conditions","diet",17,"reesles",29,NA,0,30,"eat human food","False"
22,9254,"truth_conditions","psychological",18,"blins",26,NA,0,30,"are intelligent","False"
22,5640,"truth_conditions","disease_other",19,"morseths",26,NA,1,30,"carry malaria","False"
22,7728,"truth_conditions","behavior_aggressive",20,"stups",69,NA,1,70,"steal farmers&quotechar crops","False"
22,7003,"truth_conditions","diet",21,"trufts",46,NA,1,50,"feed on the carcasses of dead animals","False"
22,6309,"truth_conditions","disease_self",22,"thups",90,NA,1,90,"develop back problems","False"
22,13864,"truth_conditions","physical",23,"taifels",46,NA,0,50,"have brown fur","False"
22,3164,"truth_conditions","diet",24,"daiths",8,NA,0,10,"eat grass","False"
22,6186,"truth_conditions","diet",25,"ludinos",51,NA,1,50,"fish in the Hudson River","False"
22,100647,"explain_responses","disease_other",19,"morseths",26,"Though only a limited number of Morseths carry malaria, the risk of believing that the statement is wholly false is high, and I think it&quotechars better to view it as ""can carry"" rather than saying no by assuming it means ""as a rule, carry.""",1,30,"carry malaria",NA
22,79074,"explain_responses","behavior",10,"elleps",34,"This is true in relation to circuses, rather than to elleps as a group. Elleps perform in circuses, as do clowns, but many clowns (and elleps) do not.",1,30,"perform in the circus",NA
23,9937,"truth_conditions","disease_self",1,"frams",34,NA,1,30,"get dandruff","False"
23,5757,"truth_conditions","disease_other",2,"morseths",10,NA,1,10,"carry malaria","False"
23,9016,"truth_conditions","physical",3,"javs",26,NA,1,30,"have brown fur","False"
23,4280,"truth_conditions","disease_self",4,"elleps",13,NA,1,10,"get addicted to nicotine","False"
23,5248,"truth_conditions","diet",5,"krivels",52,NA,1,50,"eat grass","False"
23,4264,"truth_conditions","behavior_aggressive",6,"fendles",91,NA,1,90,"torture other animals","False"
23,4639,"truth_conditions","disease_self",7,"ollers",6,NA,0,10,"develop back problems","False"
23,3368,"truth_conditions","behavior",8,"dunkels",75,NA,1,70,"perform in the circus","False"
23,2824,"truth_conditions","psychological",9,"plovs",72,NA,1,70,"are intelligent","False"
23,4392,"truth_conditions","habitat",10,"stups",94,NA,1,90,"live in the hulls of sea vessels","False"
23,3104,"truth_conditions","diet",11,"kweps",65,NA,1,70,"feed on the carcasses of dead animals","False"
23,3903,"truth_conditions","psychological",12,"mooks",86,NA,1,90,"are afraid of loud noises","False"
23,5808,"truth_conditions","habitat",13,"sapers",28,NA,0,30,"live in zoos","False"
23,5136,"truth_conditions","psychological",14,"lorches",91,NA,1,90,"mourn their dead","False"
23,4800,"truth_conditions","diet",15,"moxes",74,NA,1,70,"fish in the Hudson River","False"
23,3703,"truth_conditions","behavior_aggressive",16,"zorbs",55,NA,1,50,"attack hikers","False"
23,2889,"truth_conditions","habitat",17,"zoovs",51,NA,1,50,"live in urban areas","False"
23,2480,"truth_conditions","diet",18,"kazzes",50,NA,1,50,"drink soda","False"
23,3888,"truth_conditions","psychological",19,"ludinos",14,NA,0,10,"know when earthquakes are about to happen","False"
23,3175,"truth_conditions","diet",20,"luzaks",14,NA,0,10,"eat human food","False"
23,5511,"truth_conditions","disease_self",21,"ackles",34,NA,1,30,"go bald","False"
23,7240,"truth_conditions","behavior_aggressive",22,"taifels",30,NA,1,30,"steal farmers&quotechar crops","False"
23,2536,"truth_conditions","physical",23,"cheebas",68,NA,1,70,"have very long wings","False"
23,25895,"truth_conditions","behavior",24,"grinks",53,NA,1,50,"like to cuddle","False"
23,2689,"truth_conditions","behavior",25,"glippets",85,NA,1,90,"sleep during the day","False"
23,41335,"explain_responses","disease_self",21,"ackles",34,"A significant percentage of them do so it is not wrong to say they go bald.",1,30,"go bald",NA
23,41904,"explain_responses","disease_self",4,"elleps",13,"I thought that 13% was high without knowing how many of them are even exposed to nicotine.",1,10,"get addicted to nicotine",NA
23,33991,"explain_responses","behavior_aggressive",22,"taifels",30,"30% seems like a high rate of thievery so I considered it true.",1,30,"steal farmers&quotechar crops",NA
23,46176,"explain_responses","disease_other",2,"morseths",10,"10% infection rate would seem high in a population, again without knowing how many are even exposed.",1,10,"carry malaria",NA
24,3486,"truth_conditions","behavior",1,"taifels",46,NA,0,50,"like to cuddle","False"
24,1585,"truth_conditions","disease_self",2,"grinks",46,NA,0,50,"get dandruff","False"
24,1790,"truth_conditions","psychological",3,"cheebas",11,NA,0,10,"mourn their dead","False"
24,1729,"truth_conditions","behavior_aggressive",4,"javs",73,NA,1,70,"steal farmers&quotechar crops","False"
24,1860,"truth_conditions","diet",5,"moxes",49,NA,0,50,"eat grass","False"
24,1738,"truth_conditions","behavior",6,"elleps",90,NA,1,90,"perform in the circus","False"
24,4017,"truth_conditions","diet",7,"lorches",34,NA,0,30,"fish in the Hudson River","False"
24,1232,"truth_conditions","disease_other",8,"ollers",14,NA,0,10,"carry malaria","False"
24,2135,"truth_conditions","physical",9,"sapers",50,NA,0,50,"have brown fur","False"
24,1190,"truth_conditions","diet",10,"stups",10,NA,0,10,"eat human food","False"
24,1282,"truth_conditions","habitat",11,"ludinos",87,NA,1,90,"live in urban areas","False"
24,1171,"truth_conditions","behavior",12,"zorbs",10,NA,0,10,"sleep during the day","False"
24,1297,"truth_conditions","behavior_aggressive",13,"wugs",27,NA,0,30,"attack hikers","False"
24,1413,"truth_conditions","disease_self",14,"glippets",71,NA,1,70,"develop back problems","False"
24,1339,"truth_conditions","habitat",15,"blins",74,NA,1,70,"live in the hulls of sea vessels","False"
24,1229,"truth_conditions","psychological",16,"kweps",88,NA,1,90,"are afraid of loud noises","False"
24,1663,"truth_conditions","diet",17,"trufts",67,NA,1,70,"feed on the carcasses of dead animals","False"
24,1076,"truth_conditions","disease_self",18,"morseths",14,NA,0,10,"go bald","False"
24,1364,"truth_conditions","habitat",19,"fendles",91,NA,1,90,"live in zoos","False"
24,1390,"truth_conditions","diet",20,"plovs",29,NA,0,30,"drink soda","False"
24,1855,"truth_conditions","physical",21,"daiths",51,NA,1,50,"have very long wings","False"
24,1290,"truth_conditions","psychological",22,"zoovs",31,NA,0,30,"are intelligent","False"
24,1381,"truth_conditions","disease_self",23,"crullets",86,NA,1,90,"get addicted to nicotine","False"
24,2885,"truth_conditions","psychological",24,"reesles",73,NA,1,70,"know when earthquakes are about to happen","False"
24,1299,"truth_conditions","behavior_aggressive",25,"thups",31,NA,0,30,"torture other animals","False"
25,2145,"truth_conditions","disease_self",1,"dunkels",70,NA,1,70,"get addicted to nicotine","False"
25,1109,"truth_conditions","physical",2,"frams",6,NA,0,10,"have brown fur","False"
25,672,"truth_conditions","diet",3,"fendles",55,NA,1,50,"eat grass","False"
25,928,"truth_conditions","behavior_aggressive",4,"taifels",50,NA,1,50,"torture other animals","False"
25,1120,"truth_conditions","diet",5,"ludinos",29,NA,0,30,"fish in the Hudson River","False"
25,544,"truth_conditions","habitat",6,"crullets",65,NA,1,70,"live in zoos","False"
25,600,"truth_conditions","disease_self",7,"krivels",66,NA,0,70,"develop back problems","False"
25,623,"truth_conditions","diet",8,"elleps",7,NA,0,10,"eat human food","False"
25,465,"truth_conditions","physical",9,"luzaks",14,NA,1,10,"have very long wings","False"
25,768,"truth_conditions","behavior",10,"dorbs",28,NA,0,30,"perform in the circus","False"
25,504,"truth_conditions","behavior_aggressive",11,"plovs",91,NA,1,90,"steal farmers&quotechar crops","False"
25,1328,"truth_conditions","behavior",12,"trufts",48,NA,1,50,"like to cuddle","False"
25,1312,"truth_conditions","disease_other",13,"blins",92,NA,0,90,"carry malaria","False"
25,520,"truth_conditions","diet",14,"thups",28,NA,1,30,"drink soda","False"
25,832,"truth_conditions","disease_self",15,"kazzes",71,NA,0,70,"get dandruff","False"
25,888,"truth_conditions","psychological",16,"grinks",14,NA,1,10,"are intelligent","False"
25,624,"truth_conditions","behavior_aggressive",17,"zorbs",91,NA,1,90,"attack hikers","False"
25,1830,"truth_conditions","behavior",18,"stups",91,NA,0,90,"sleep during the day","False"
25,617,"truth_conditions","diet",19,"zoovs",32,NA,0,30,"feed on the carcasses of dead animals","False"
25,1551,"truth_conditions","psychological",20,"javs",32,NA,1,30,"are afraid of loud noises","False"
25,520,"truth_conditions","habitat",21,"kweps",74,NA,0,70,"live in the hulls of sea vessels","False"
25,1400,"truth_conditions","psychological",22,"dobles",91,NA,1,90,"know when earthquakes are about to happen","False"
25,824,"truth_conditions","disease_self",23,"moxes",46,NA,0,50,"go bald","False"
25,600,"truth_conditions","psychological",24,"wugs",47,NA,0,50,"mourn their dead","False"
25,1280,"truth_conditions","habitat",25,"cheebas",7,NA,1,10,"live in urban areas","False"
25,17167,"explain_responses","disease_other",13,"blins",92,"I don&quotechart think Blins even exist",0,90,"carry malaria",NA
25,7271,"explain_responses","disease_self",15,"kazzes",71,"Kazzes do not exist. ",0,70,"get dandruff",NA
25,5673,"explain_responses","diet",14,"thups",28,"No idea what a thups is. ",1,30,"drink soda",NA
25,6455,"explain_responses","psychological",16,"grinks",14,"Grinks do not exist at all. ",1,10,"are intelligent",NA
26,13628,"truth_conditions","psychological",1,"glippets",49,NA,1,50,"are afraid of loud noises","False"
26,12216,"truth_conditions","diet",2,"grinks",88,NA,1,90,"fish in the Hudson River","False"
26,4759,"truth_conditions","diet",3,"zoovs",9,NA,0,10,"drink soda","False"
26,8541,"truth_conditions","habitat",4,"crullets",48,NA,0,50,"live in urban areas","False"
26,7571,"truth_conditions","diet",5,"krivels",89,NA,1,90,"feed on the carcasses of dead animals","False"
26,6214,"truth_conditions","behavior",6,"ludinos",93,NA,1,90,"like to cuddle","False"
26,5075,"truth_conditions","diet",7,"wugs",7,NA,0,10,"eat human food","False"
26,9173,"truth_conditions","disease_self",8,"dunkels",71,NA,1,70,"develop back problems","False"
26,4696,"truth_conditions","disease_self",9,"taifels",91,NA,1,90,"get dandruff","False"
26,4987,"truth_conditions","disease_other",10,"zorbs",47,NA,0,50,"carry malaria","False"
26,9970,"truth_conditions","behavior",11,"luzaks",67,NA,0,70,"sleep during the day","False"
26,8515,"truth_conditions","behavior_aggressive",12,"stups",47,NA,0,50,"torture other animals","False"
26,11583,"truth_conditions","physical",13,"dobles",31,NA,0,30,"have very long wings","False"
26,8142,"truth_conditions","behavior_aggressive",14,"thups",65,NA,1,70,"steal farmers&quotechar crops","False"
26,6422,"truth_conditions","psychological",15,"plovs",8,NA,0,10,"know when earthquakes are about to happen","False"
26,6300,"truth_conditions","habitat",16,"sapers",85,NA,1,90,"live in the hulls of sea vessels","False"
26,22052,"truth_conditions","psychological",17,"dorbs",5,NA,1,10,"mourn their dead","False"
26,7407,"truth_conditions","disease_self",18,"elleps",28,NA,1,30,"get addicted to nicotine","False"
26,8639,"truth_conditions","physical",19,"cheebas",46,NA,0,50,"have brown fur","False"
26,6164,"truth_conditions","disease_self",20,"ackles",67,NA,1,70,"go bald","False"
26,5113,"truth_conditions","habitat",21,"blins",33,NA,0,30,"live in zoos","False"
26,11503,"truth_conditions","behavior_aggressive",22,"reesles",26,NA,1,30,"attack hikers","False"
26,5681,"truth_conditions","psychological",23,"daiths",28,NA,1,30,"are intelligent","False"
26,4179,"truth_conditions","diet",24,"frams",14,NA,1,10,"eat grass","False"
26,5411,"truth_conditions","behavior",25,"fendles",75,NA,1,70,"perform in the circus","False"
26,72216,"explain_responses","behavior",11,"luzaks",67,"Since they sleep both during the day and at night, I couldn&quotechart say that the sentence was true.  ",0,70,"sleep during the day",NA
26,85083,"explain_responses","disease_self",18,"elleps",28,"I felt the percentage was high enough that the statement could be considered as true. ",1,30,"get addicted to nicotine",NA
26,28831,"explain_responses","psychological",23,"daiths",28,"I felt that this percentage is great enough that the statement was true. ",1,30,"are intelligent",NA
26,48770,"explain_responses","behavior_aggressive",22,"reesles",26,"The fact that 26% are dangerous enough to attack hikers made it a statement that, for public safety, was true. ",1,30,"attack hikers",NA
27,8054,"truth_conditions","behavior",1,"kweps",68,NA,1,70,"sleep during the day","True"
27,4132,"truth_conditions","disease_self",2,"moxes",69,NA,1,70,"get dandruff","True"
27,5104,"truth_conditions","disease_other",3,"ackles",27,NA,1,30,"carry malaria","True"
27,5026,"truth_conditions","behavior_aggressive",4,"krivels",91,NA,1,90,"torture other animals","True"
27,3117,"truth_conditions","behavior_aggressive",5,"frams",86,NA,1,90,"steal farmers&quotechar crops","True"
27,5105,"truth_conditions","diet",6,"morseths",46,NA,0,50,"fish in the Hudson River","True"
27,6019,"truth_conditions","diet",7,"glippets",6,NA,0,10,"feed on the carcasses of dead animals","True"
27,6183,"truth_conditions","psychological",8,"ollers",50,NA,0,50,"are afraid of loud noises","True"
27,14560,"truth_conditions","behavior_aggressive",9,"taifels",70,NA,1,70,"attack hikers","True"
27,2248,"truth_conditions","diet",10,"wugs",94,NA,1,90,"drink soda","True"
27,3328,"truth_conditions","psychological",11,"dobles",32,NA,0,30,"mourn their dead","True"
27,1792,"truth_conditions","habitat",12,"luzaks",90,NA,1,90,"live in urban areas","True"
27,3079,"truth_conditions","behavior",13,"kazzes",72,NA,1,70,"perform in the circus","True"
27,3724,"truth_conditions","disease_self",14,"stups",48,NA,1,50,"go bald","True"
27,2923,"truth_conditions","behavior",15,"zoovs",25,NA,0,30,"like to cuddle","True"
27,2576,"truth_conditions","disease_self",16,"crullets",9,NA,0,10,"get addicted to nicotine","True"
27,3265,"truth_conditions","physical",17,"lorches",11,NA,0,10,"have very long wings","True"
27,3380,"truth_conditions","diet",18,"blins",11,NA,0,10,"eat human food","True"
27,4446,"truth_conditions","habitat",19,"mooks",33,NA,0,30,"live in zoos","True"
27,2706,"truth_conditions","psychological",20,"thups",52,NA,1,50,"know when earthquakes are about to happen","True"
27,4252,"truth_conditions","psychological",21,"trufts",13,NA,0,10,"are intelligent","True"
27,2000,"truth_conditions","diet",22,"sapers",29,NA,0,30,"eat grass","True"
27,2149,"truth_conditions","disease_self",23,"plovs",87,NA,1,90,"develop back problems","True"
27,1783,"truth_conditions","physical",24,"fendles",70,NA,1,70,"have brown fur","True"
27,2382,"truth_conditions","habitat",25,"feps",51,NA,1,50,"live in the hulls of sea vessels","True"
27,17587,"explain_responses","disease_other",3,"ackles",27,"While only 1 and 4 do that is still a pretty high percentage that carry malaria. ",1,30,"carry malaria",NA
28,10140,"truth_conditions","habitat",1,"luzaks",9,NA,0,10,"live in urban areas","False"
28,6286,"truth_conditions","disease_other",2,"mooks",7,NA,0,10,"carry malaria","False"
28,4014,"truth_conditions","diet",3,"morseths",95,NA,1,90,"eat grass","False"
28,3608,"truth_conditions","diet",4,"glippets",29,NA,0,30,"fish in the Hudson River","False"
28,4762,"truth_conditions","diet",5,"taifels",54,NA,1,50,"eat human food","False"
28,3086,"truth_conditions","disease_self",6,"krivels",9,NA,0,10,"go bald","False"
28,3048,"truth_conditions","diet",7,"moxes",50,NA,1,50,"drink soda","False"
28,2250,"truth_conditions","psychological",8,"stups",70,NA,1,70,"are intelligent","False"
28,3833,"truth_conditions","disease_self",9,"frams",74,NA,1,70,"get addicted to nicotine","False"
28,3934,"truth_conditions","behavior",10,"cheebas",25,NA,0,30,"perform in the circus","False"
28,2533,"truth_conditions","behavior",11,"ackles",89,NA,1,90,"sleep during the day","False"
28,3704,"truth_conditions","physical",12,"feps",30,NA,0,30,"have brown fur","False"
28,2820,"truth_conditions","behavior_aggressive",13,"trufts",72,NA,1,70,"torture other animals","False"
28,3234,"truth_conditions","disease_self",14,"ollers",33,NA,0,30,"develop back problems","False"
28,2998,"truth_conditions","psychological",15,"reesles",54,NA,1,50,"know when earthquakes are about to happen","False"
28,1655,"truth_conditions","psychological",16,"plovs",54,NA,1,50,"are afraid of loud noises","False"
28,1571,"truth_conditions","behavior_aggressive",17,"grinks",87,NA,1,90,"attack hikers","False"
28,1494,"truth_conditions","habitat",18,"elleps",93,NA,1,90,"live in the hulls of sea vessels","False"
28,1592,"truth_conditions","behavior",19,"kweps",69,NA,1,70,"like to cuddle","False"
28,1820,"truth_conditions","habitat",20,"crullets",5,NA,0,10,"live in zoos","False"
28,1926,"truth_conditions","disease_self",21,"lorches",8,NA,0,10,"get dandruff","False"
28,2030,"truth_conditions","behavior_aggressive",22,"wugs",51,NA,1,50,"steal farmers&quotechar crops","False"
28,1788,"truth_conditions","psychological",23,"daiths",87,NA,1,90,"mourn their dead","False"
28,2573,"truth_conditions","physical",24,"dorbs",32,NA,0,30,"have very long wings","False"
28,2821,"truth_conditions","diet",25,"dunkels",69,NA,1,70,"feed on the carcasses of dead animals","False"
29,3217,"truth_conditions","psychological",1,"dobles",8,NA,0,10,"know when earthquakes are about to happen","False"
29,3239,"truth_conditions","behavior_aggressive",2,"ludinos",92,NA,0,90,"torture other animals","False"
29,1198,"truth_conditions","disease_self",3,"kweps",13,NA,0,10,"get dandruff","False"
29,1521,"truth_conditions","disease_self",4,"wugs",28,NA,1,30,"develop back problems","False"
29,1105,"truth_conditions","psychological",5,"sapers",12,NA,0,10,"are afraid of loud noises","False"
29,1734,"truth_conditions","disease_other",6,"taifels",91,NA,1,90,"carry malaria","False"
29,2393,"truth_conditions","psychological",7,"blins",73,NA,0,70,"mourn their dead","False"
29,640,"truth_conditions","diet",8,"ollers",25,NA,0,30,"drink soda","False"
29,878,"truth_conditions","physical",9,"kazzes",29,NA,1,30,"have brown fur","False"
29,944,"truth_conditions","psychological",10,"ackles",92,NA,0,90,"are intelligent","False"
29,1418,"truth_conditions","diet",11,"crullets",73,NA,0,70,"fish in the Hudson River","False"
29,2118,"truth_conditions","disease_self",12,"krivels",31,NA,0,30,"get addicted to nicotine","False"
29,880,"truth_conditions","physical",13,"fendles",7,NA,0,10,"have very long wings","False"
29,1137,"truth_conditions","habitat",14,"cheebas",73,NA,1,70,"live in the hulls of sea vessels","False"
29,1432,"truth_conditions","diet",15,"lorches",89,NA,1,90,"eat grass","False"
29,1511,"truth_conditions","behavior_aggressive",16,"elleps",33,NA,0,30,"steal farmers&quotechar crops","False"
29,1440,"truth_conditions","behavior",17,"moxes",50,NA,0,50,"like to cuddle","False"
29,1655,"truth_conditions","disease_self",18,"reesles",68,NA,1,70,"go bald","False"
29,1186,"truth_conditions","behavior",19,"zoovs",88,NA,1,90,"perform in the circus","False"
29,1599,"truth_conditions","behavior",20,"dunkels",67,NA,1,70,"sleep during the day","False"
29,1000,"truth_conditions","habitat",21,"trufts",51,NA,1,50,"live in urban areas","False"
29,1360,"truth_conditions","diet",22,"zorbs",46,NA,0,50,"feed on the carcasses of dead animals","False"
29,1169,"truth_conditions","habitat",23,"stups",10,NA,0,10,"live in zoos","False"
29,944,"truth_conditions","diet",24,"thups",47,NA,0,50,"eat human food","False"
29,974,"truth_conditions","behavior_aggressive",25,"grinks",45,NA,0,50,"attack hikers","False"
29,1940,"explain_responses","diet",11,"crullets",73,"no",0,70,"fish in the Hudson River",NA
29,4023,"explain_responses","physical",9,"kazzes",29,"no",1,30,"have brown fur",NA
29,1631,"explain_responses","disease_self",4,"wugs",28,"no",1,30,"develop back problems",NA
29,1936,"explain_responses","psychological",7,"blins",73,"no",0,70,"mourn their dead",NA
30,4697,"truth_conditions","diet",1,"ludinos",70,NA,1,70,"fish in the Hudson River","False"
30,2302,"truth_conditions","behavior_aggressive",2,"elleps",87,NA,1,90,"torture other animals","False"
30,912,"truth_conditions","physical",3,"moxes",46,NA,1,50,"have very long wings","False"
30,1397,"truth_conditions","habitat",4,"crullets",28,NA,1,30,"live in urban areas","False"
30,771,"truth_conditions","psychological",5,"zoovs",54,NA,1,50,"are intelligent","False"
30,708,"truth_conditions","behavior",6,"sapers",48,NA,1,50,"like to cuddle","False"
30,772,"truth_conditions","behavior_aggressive",7,"dobles",27,NA,1,30,"steal farmers&quotechar crops","False"
30,738,"truth_conditions","behavior",8,"feps",68,NA,1,70,"sleep during the day","False"
30,725,"truth_conditions","disease_self",9,"trufts",34,NA,1,30,"get dandruff","False"
30,719,"truth_conditions","behavior",10,"thups",87,NA,1,90,"perform in the circus","False"
30,792,"truth_conditions","psychological",11,"blins",11,NA,1,10,"mourn their dead","False"
30,722,"truth_conditions","diet",12,"cheebas",47,NA,1,50,"eat grass","False"
30,697,"truth_conditions","physical",13,"plovs",13,NA,1,10,"have brown fur","False"
30,770,"truth_conditions","disease_self",14,"reesles",8,NA,1,10,"get addicted to nicotine","False"
30,739,"truth_conditions","behavior_aggressive",15,"morseths",91,NA,1,90,"attack hikers","False"
30,701,"truth_conditions","disease_other",16,"taifels",65,NA,1,70,"carry malaria","False"
30,725,"truth_conditions","habitat",17,"krivels",33,NA,1,30,"live in the hulls of sea vessels","False"
30,752,"truth_conditions","psychological",18,"zorbs",52,NA,1,50,"know when earthquakes are about to happen","False"
30,787,"truth_conditions","disease_self",19,"dorbs",9,NA,1,10,"develop back problems","False"
30,748,"truth_conditions","psychological",20,"lorches",70,NA,1,70,"are afraid of loud noises","False"
30,795,"truth_conditions","disease_self",21,"grinks",69,NA,1,70,"go bald","False"
30,1581,"truth_conditions","habitat",22,"ackles",7,NA,1,10,"live in zoos","False"
30,1703,"truth_conditions","diet",23,"fendles",89,NA,1,90,"drink soda","False"
30,838,"truth_conditions","diet",24,"frams",32,NA,1,30,"feed on the carcasses of dead animals","False"
30,785,"truth_conditions","diet",25,"wugs",92,NA,1,90,"eat human food","False"
30,12465,"explain_responses","disease_self",14,"reesles",8,"Some of them do get addicted to nicotine",1,10,"get addicted to nicotine",NA
30,6896,"explain_responses","psychological",11,"blins",11,"Some of them do mourn.",1,10,"mourn their dead",NA
30,10234,"explain_responses","habitat",17,"krivels",33,"A third of them live in hulls.",1,30,"live in the hulls of sea vessels",NA
30,7870,"explain_responses","habitat",4,"crullets",28,"almost a third live in urban areas.",1,30,"live in urban areas",NA
31,11918,"truth_conditions","behavior",1,"morseths",66,NA,1,70,"perform in the circus","True"
31,9996,"truth_conditions","physical",2,"ollers",92,NA,1,90,"have brown fur","True"
31,7796,"truth_conditions","disease_other",3,"kweps",11,NA,0,10,"carry malaria","True"
31,35863,"truth_conditions","psychological",4,"ludinos",33,NA,0,30,"mourn their dead","True"
31,7718,"truth_conditions","diet",5,"lorches",33,NA,0,30,"eat human food","True"
31,4866,"truth_conditions","disease_self",6,"grinks",26,NA,0,30,"get dandruff","True"
31,9381,"truth_conditions","behavior",7,"dunkels",90,NA,1,90,"sleep during the day","True"
31,58642,"truth_conditions","behavior_aggressive",8,"moxes",89,NA,1,90,"torture other animals","True"
31,3681,"truth_conditions","behavior",9,"ackles",28,NA,0,30,"like to cuddle","True"
31,8034,"truth_conditions","disease_self",10,"sapers",51,NA,1,50,"get addicted to nicotine","True"
31,3851,"truth_conditions","habitat",11,"stups",72,NA,1,70,"live in urban areas","True"
31,2600,"truth_conditions","physical",12,"zorbs",54,NA,0,50,"have very long wings","True"
31,5073,"truth_conditions","psychological",13,"mooks",94,NA,0,90,"know when earthquakes are about to happen","True"
31,6790,"truth_conditions","habitat",14,"feps",11,NA,0,10,"live in the hulls of sea vessels","True"
31,18792,"truth_conditions","diet",15,"dorbs",71,NA,1,70,"drink soda","True"
31,3611,"truth_conditions","psychological",16,"wugs",48,NA,0,50,"are intelligent","True"
31,4346,"truth_conditions","disease_self",17,"daiths",13,NA,0,10,"go bald","True"
31,7941,"truth_conditions","behavior_aggressive",18,"reesles",90,NA,1,90,"steal farmers&quotechar crops","True"
31,5560,"truth_conditions","diet",19,"crullets",30,NA,0,30,"feed on the carcasses of dead animals","True"
31,2545,"truth_conditions","diet",20,"glippets",73,NA,1,70,"eat grass","True"
31,2135,"truth_conditions","habitat",21,"taifels",52,NA,0,50,"live in zoos","True"
31,3641,"truth_conditions","disease_self",22,"javs",52,NA,0,50,"develop back problems","True"
31,3974,"truth_conditions","diet",23,"thups",14,NA,0,10,"fish in the Hudson River","True"
31,2242,"truth_conditions","psychological",24,"elleps",66,NA,1,70,"are afraid of loud noises","True"
31,2365,"truth_conditions","behavior_aggressive",25,"kazzes",10,NA,0,10,"attack hikers","True"
31,33183,"explain_responses","psychological",13,"mooks",94,"it is not really possible to predict when earthquakes will happen so I said false",0,90,"know when earthquakes are about to happen",NA
32,3941,"truth_conditions","behavior_aggressive",1,"zoovs",54,NA,0,50,"attack hikers","False"
32,2425,"truth_conditions","psychological",2,"plovs",54,NA,1,50,"mourn their dead","False"
32,1910,"truth_conditions","diet",3,"stups",7,NA,1,10,"eat human food","False"
32,1537,"truth_conditions","behavior",4,"cheebas",68,NA,0,70,"like to cuddle","False"
32,2823,"truth_conditions","behavior",5,"elleps",94,NA,1,90,"perform in the circus","False"
32,1347,"truth_conditions","behavior",6,"blins",34,NA,1,30,"sleep during the day","False"
32,1055,"truth_conditions","psychological",7,"mooks",33,NA,0,30,"are afraid of loud noises","False"
32,1208,"truth_conditions","habitat",8,"zorbs",33,NA,1,30,"live in zoos","False"
32,23880,"truth_conditions","psychological",9,"dorbs",72,NA,1,70,"are intelligent","False"
32,1911,"truth_conditions","disease_other",10,"crullets",73,NA,1,70,"carry malaria","False"
32,1912,"truth_conditions","habitat",11,"ludinos",72,NA,1,70,"live in the hulls of sea vessels","False"
32,2241,"truth_conditions","diet",12,"kweps",52,NA,1,50,"fish in the Hudson River","False"
32,2320,"truth_conditions","behavior_aggressive",13,"moxes",87,NA,1,90,"torture other animals","False"
32,1135,"truth_conditions","behavior_aggressive",14,"wugs",91,NA,1,90,"steal farmers&quotechar crops","False"
32,1406,"truth_conditions","disease_self",15,"krivels",33,NA,1,30,"get addicted to nicotine","False"
32,1903,"truth_conditions","disease_self",16,"lorches",14,NA,0,10,"get dandruff","False"
32,2160,"truth_conditions","diet",17,"feps",49,NA,1,50,"feed on the carcasses of dead animals","False"
32,3055,"truth_conditions","habitat",18,"kazzes",6,NA,1,10,"live in urban areas","False"
32,10216,"truth_conditions","disease_self",19,"dunkels",8,NA,1,10,"go bald","False"
32,1535,"truth_conditions","disease_self",20,"glippets",10,NA,1,10,"develop back problems","False"
32,1896,"truth_conditions","physical",21,"frams",90,NA,1,90,"have very long wings","False"
32,5961,"truth_conditions","psychological",22,"trufts",33,NA,1,30,"know when earthquakes are about to happen","False"
32,1613,"truth_conditions","diet",23,"fendles",86,NA,1,90,"eat grass","False"
32,2767,"truth_conditions","physical",24,"luzaks",67,NA,1,70,"have brown fur","False"
32,1617,"truth_conditions","diet",25,"ackles",52,NA,1,50,"drink soda","False"
32,46320,"explain_responses","psychological",22,"trufts",33,"the chances of them knowing exixt",1,30,"know when earthquakes are about to happen",NA
32,25148,"explain_responses","disease_self",15,"krivels",33,"there are chances of them being addicted",1,30,"get addicted to nicotine",NA
32,25040,"explain_responses","diet",3,"stups",7,"dome of them does",1,10,"eat human food",NA
32,19051,"explain_responses","behavior",4,"cheebas",68,"a high percentage of them do",0,70,"like to cuddle",NA
33,8199,"truth_conditions","diet",1,"javs",7,NA,1,10,"eat grass","False"
33,10088,"truth_conditions","diet",2,"kazzes",95,NA,1,90,"fish in the Hudson River","False"
33,3990,"truth_conditions","psychological",3,"reesles",25,NA,0,30,"are afraid of loud noises","False"
33,6127,"truth_conditions","psychological",4,"cheebas",72,NA,0,70,"know when earthquakes are about to happen","False"
33,4036,"truth_conditions","diet",5,"blins",65,NA,1,70,"feed on the carcasses of dead animals","False"
33,4249,"truth_conditions","behavior",6,"frams",46,NA,0,50,"like to cuddle","False"
33,2345,"truth_conditions","behavior_aggressive",7,"krivels",28,NA,0,30,"steal farmers&quotechar crops","False"
33,3161,"truth_conditions","disease_self",8,"daiths",9,NA,0,10,"go bald","False"
33,2367,"truth_conditions","psychological",9,"taifels",51,NA,1,50,"mourn their dead","False"
33,3448,"truth_conditions","diet",10,"morseths",74,NA,1,70,"drink soda","False"
33,2317,"truth_conditions","disease_self",11,"fendles",33,NA,0,30,"develop back problems","False"
33,2544,"truth_conditions","disease_self",12,"elleps",72,NA,1,70,"get addicted to nicotine","False"
33,4946,"truth_conditions","habitat",13,"zoovs",48,NA,1,50,"live in the hulls of sea vessels","False"
33,1984,"truth_conditions","disease_other",14,"zorbs",94,NA,1,90,"carry malaria","False"
33,2167,"truth_conditions","diet",15,"dobles",6,NA,0,10,"eat human food","False"
33,5796,"truth_conditions","habitat",16,"trufts",68,NA,1,70,"live in zoos","False"
33,2052,"truth_conditions","habitat",17,"feps",9,NA,0,10,"live in urban areas","False"
33,2470,"truth_conditions","behavior_aggressive",18,"mooks",91,NA,1,90,"attack hikers","False"
33,3420,"truth_conditions","behavior_aggressive",19,"ollers",90,NA,1,90,"torture other animals","False"
33,2226,"truth_conditions","disease_self",20,"thups",89,NA,1,90,"get dandruff","False"
33,2224,"truth_conditions","behavior",21,"moxes",35,NA,0,30,"sleep during the day","False"
33,2935,"truth_conditions","physical",22,"crullets",51,NA,0,50,"have brown fur","False"
33,2503,"truth_conditions","behavior",23,"ackles",34,NA,1,30,"perform in the circus","False"
33,3756,"truth_conditions","psychological",24,"stups",51,NA,1,50,"are intelligent","False"
33,3266,"truth_conditions","physical",25,"sapers",6,NA,0,10,"have very long wings","False"
33,18088,"explain_responses","behavior",23,"ackles",34,"Because some of them do, so it&quotechars a thing that is possible.",1,30,"perform in the circus",NA
33,17060,"explain_responses","diet",1,"javs",7,"Some Javs eat grass, so it is possible for them to eat it.",1,10,"eat grass",NA
33,47942,"explain_responses","psychological",4,"cheebas",72,"Cheebas don&quotechart always know that an earthquake is going to happen, so you can&quotechart say it&quotechars a certain thing.",0,70,"know when earthquakes are about to happen",NA
34,4409,"truth_conditions","habitat",1,"trufts",85,NA,1,90,"live in the hulls of sea vessels","True"
34,2075,"truth_conditions","behavior_aggressive",2,"krivels",55,NA,0,50,"steal farmers&quotechar crops","True"
34,1518,"truth_conditions","diet",3,"zorbs",88,NA,1,90,"eat human food","True"
34,2028,"truth_conditions","disease_self",4,"moxes",11,NA,0,10,"develop back problems","True"
34,1077,"truth_conditions","psychological",5,"mooks",71,NA,1,70,"know when earthquakes are about to happen","True"
34,1736,"truth_conditions","diet",6,"kweps",8,NA,0,10,"eat grass","True"
34,1502,"truth_conditions","physical",7,"wugs",90,NA,1,90,"have very long wings","True"
34,1249,"truth_conditions","habitat",8,"lorches",31,NA,0,30,"live in zoos","True"
34,716,"truth_conditions","behavior",9,"thups",47,NA,1,50,"perform in the circus","True"
34,3563,"truth_conditions","psychological",10,"kazzes",27,NA,0,30,"mourn their dead","True"
34,954,"truth_conditions","behavior_aggressive",11,"cheebas",72,NA,1,70,"torture other animals","True"
34,1451,"truth_conditions","psychological",12,"glippets",30,NA,0,30,"are intelligent","True"
34,1159,"truth_conditions","diet",13,"reesles",86,NA,1,90,"feed on the carcasses of dead animals","True"
34,1013,"truth_conditions","behavior",14,"crullets",68,NA,1,70,"like to cuddle","True"
34,470,"truth_conditions","disease_self",15,"blins",74,NA,1,70,"get dandruff","True"
34,829,"truth_conditions","disease_self",16,"dunkels",55,NA,1,50,"get addicted to nicotine","True"
34,1543,"truth_conditions","diet",17,"ackles",70,NA,1,70,"fish in the Hudson River","True"
34,1378,"truth_conditions","behavior_aggressive",18,"elleps",14,NA,0,10,"attack hikers","True"
34,2265,"truth_conditions","psychological",19,"grinks",34,NA,0,30,"are afraid of loud noises","True"
34,1203,"truth_conditions","disease_other",20,"javs",11,NA,0,10,"carry malaria","True"
34,1090,"truth_conditions","physical",21,"feps",12,NA,0,10,"have brown fur","True"
34,1190,"truth_conditions","disease_self",22,"ludinos",92,NA,1,90,"go bald","True"
34,3212,"truth_conditions","habitat",23,"ollers",48,NA,1,50,"live in urban areas","True"
34,2834,"truth_conditions","diet",24,"morseths",54,NA,1,50,"drink soda","True"
34,1890,"truth_conditions","behavior",25,"stups",26,NA,0,30,"sleep during the day","True"
35,4012,"truth_conditions","psychological",1,"elleps",32,NA,0,30,"are intelligent","False"
35,4732,"truth_conditions","diet",2,"lorches",34,NA,0,30,"fish in the Hudson River","False"
35,3462,"truth_conditions","disease_self",3,"kweps",10,NA,0,10,"get dandruff","False"
35,3100,"truth_conditions","behavior",4,"thups",90,NA,1,90,"like to cuddle","False"
35,2160,"truth_conditions","disease_self",5,"blins",68,NA,1,70,"go bald","False"
35,2270,"truth_conditions","disease_self",6,"trufts",89,NA,1,90,"get addicted to nicotine","False"
35,1784,"truth_conditions","diet",7,"javs",35,NA,0,30,"drink soda","False"
35,3062,"truth_conditions","psychological",8,"ackles",51,NA,1,50,"mourn their dead","False"
35,2210,"truth_conditions","disease_other",9,"dobles",6,NA,0,10,"carry malaria","False"
35,2240,"truth_conditions","habitat",10,"wugs",55,NA,1,50,"live in zoos","False"
35,2338,"truth_conditions","disease_self",11,"taifels",70,NA,1,70,"develop back problems","False"
35,1782,"truth_conditions","diet",12,"reesles",93,NA,1,90,"feed on the carcasses of dead animals","False"
35,2494,"truth_conditions","behavior",13,"crullets",9,NA,0,10,"perform in the circus","False"
35,2242,"truth_conditions","behavior_aggressive",14,"moxes",27,NA,0,30,"torture other animals","False"
35,1786,"truth_conditions","behavior_aggressive",15,"ollers",86,NA,1,90,"attack hikers","False"
35,2072,"truth_conditions","behavior",16,"krivels",47,NA,0,50,"sleep during the day","False"
35,1966,"truth_conditions","habitat",17,"ludinos",66,NA,1,70,"live in the hulls of sea vessels","False"
35,1612,"truth_conditions","behavior_aggressive",18,"kazzes",46,NA,0,50,"steal farmers&quotechar crops","False"
35,2724,"truth_conditions","diet",19,"luzaks",48,NA,0,50,"eat human food","False"
35,2274,"truth_conditions","physical",20,"morseths",25,NA,0,30,"have very long wings","False"
35,1430,"truth_conditions","diet",21,"fendles",12,NA,0,10,"eat grass","False"
35,2216,"truth_conditions","physical",22,"dunkels",87,NA,1,90,"have brown fur","False"
35,2156,"truth_conditions","psychological",23,"stups",11,NA,0,10,"are afraid of loud noises","False"
35,1848,"truth_conditions","psychological",24,"zorbs",70,NA,1,70,"know when earthquakes are about to happen","False"
35,1450,"truth_conditions","habitat",25,"plovs",65,NA,1,70,"live in urban areas","False"
36,12881,"truth_conditions","psychological",1,"zoovs",92,NA,0,90,"know when earthquakes are about to happen","False"
36,6959,"truth_conditions","disease_self",2,"daiths",67,NA,1,70,"go bald","False"
36,7791,"truth_conditions","psychological",3,"dorbs",49,NA,0,50,"are intelligent","False"
36,11048,"truth_conditions","behavior",4,"fendles",50,NA,0,50,"perform in the circus","False"
36,4599,"truth_conditions","behavior_aggressive",5,"elleps",88,NA,1,90,"steal farmers&quotechar crops","False"
36,3672,"truth_conditions","psychological",6,"krivels",27,NA,0,30,"are afraid of loud noises","False"
36,3168,"truth_conditions","diet",7,"cheebas",13,NA,0,10,"eat human food","False"
36,4072,"truth_conditions","psychological",8,"dobles",54,NA,1,50,"mourn their dead","False"
36,10208,"truth_conditions","disease_other",9,"morseths",34,NA,0,30,"carry malaria","False"
36,2520,"truth_conditions","behavior",10,"sapers",94,NA,1,90,"sleep during the day","False"
36,2936,"truth_conditions","behavior",11,"grinks",12,NA,0,10,"like to cuddle","False"
36,3640,"truth_conditions","behavior_aggressive",12,"dunkels",89,NA,1,90,"attack hikers","False"
36,2560,"truth_conditions","disease_self",13,"kweps",92,NA,1,90,"get addicted to nicotine","False"
36,2967,"truth_conditions","disease_self",14,"ludinos",29,NA,0,30,"get dandruff","False"
36,4049,"truth_conditions","habitat",15,"plovs",29,NA,0,30,"live in zoos","False"
36,5288,"truth_conditions","habitat",16,"wugs",70,NA,1,70,"live in the hulls of sea vessels","False"
36,3592,"truth_conditions","habitat",17,"lorches",72,NA,1,70,"live in urban areas","False"
36,2591,"truth_conditions","diet",18,"crullets",6,NA,0,10,"eat grass","False"
36,2888,"truth_conditions","diet",19,"stups",50,NA,0,50,"feed on the carcasses of dead animals","False"
36,2936,"truth_conditions","physical",20,"javs",49,NA,0,50,"have very long wings","False"
36,2408,"truth_conditions","diet",21,"kazzes",69,NA,1,70,"fish in the Hudson River","False"
36,3016,"truth_conditions","physical",22,"luzaks",11,NA,0,10,"have brown fur","False"
36,3648,"truth_conditions","diet",23,"trufts",14,NA,0,10,"drink soda","False"
36,2400,"truth_conditions","disease_self",24,"taifels",69,NA,1,70,"develop back problems","False"
36,2272,"truth_conditions","behavior_aggressive",25,"reesles",35,NA,0,30,"torture other animals","False"
36,25648,"explain_responses","psychological",1,"zoovs",92,"That sounds highly improbable. Nothing can tell when an earthquake will happen.",0,90,"know when earthquakes are about to happen",NA
37,18184,"truth_conditions","diet",1,"dorbs",91,NA,0,90,"fish in the Hudson River","False"
37,10052,"truth_conditions","diet",2,"trufts",28,NA,0,30,"eat human food","False"
37,7109,"truth_conditions","psychological",3,"mooks",87,NA,1,90,"are afraid of loud noises","False"
37,8304,"truth_conditions","diet",4,"daiths",48,NA,1,50,"feed on the carcasses of dead animals","False"
37,4574,"truth_conditions","disease_self",5,"zoovs",10,NA,1,10,"develop back problems","False"
37,3754,"truth_conditions","disease_self",6,"morseths",8,NA,1,10,"get dandruff","False"
37,7100,"truth_conditions","behavior_aggressive",7,"kweps",66,NA,0,70,"torture other animals","False"
37,7014,"truth_conditions","behavior",8,"reesles",75,NA,1,70,"perform in the circus","False"
37,6104,"truth_conditions","disease_self",9,"ollers",29,NA,1,30,"go bald","False"
37,4962,"truth_conditions","disease_other",10,"sapers",53,NA,1,50,"carry malaria","False"
37,5619,"truth_conditions","psychological",11,"kazzes",69,NA,1,70,"mourn their dead","False"
37,29008,"truth_conditions","diet",12,"thups",93,NA,0,90,"drink soda","False"
