"workerid","rt","trial_type","property","trial_num","experimentResults","missing","explanation","n_data","condition","distribution","property_type","response","category"
0,114429,"prior_manipulation","know when earthquakes are about to happen",1,"[100, 45, 30, 80, 5, 95, 70, 20, 55, 0, u'?']",10,"The knowledge chance was all over the place, from 100 to near zero, without any real notable pattern. So one very high a couple low and one in the middle. ",10,"prior","uniform","psychological",0.75,"K"
0,114429,"prior_manipulation","know when earthquakes are about to happen",1,"[100, 45, 30, 80, 5, 95, 70, 20, 55, 0, u'?']",10,"The knowledge chance was all over the place, from 100 to near zero, without any real notable pattern. So one very high a couple low and one in the middle. ",10,"prior","uniform","psychological",0.11,"L"
0,114429,"prior_manipulation","know when earthquakes are about to happen",1,"[100, 45, 30, 80, 5, 95, 70, 20, 55, 0, u'?']",10,"The knowledge chance was all over the place, from 100 to near zero, without any real notable pattern. So one very high a couple low and one in the middle. ",10,"prior","uniform","psychological",0.29,"M"
0,114429,"prior_manipulation","know when earthquakes are about to happen",1,"[100, 45, 30, 80, 5, 95, 70, 20, 55, 0, u'?']",10,"The knowledge chance was all over the place, from 100 to near zero, without any real notable pattern. So one very high a couple low and one in the middle. ",10,"prior","uniform","psychological",0.46,"N"
0,114429,"prior_manipulation","know when earthquakes are about to happen",1,"[100, 45, 30, 80, 5, 95, 70, 20, 55, 0, u'?']",10,"The knowledge chance was all over the place, from 100 to near zero, without any real notable pattern. So one very high a couple low and one in the middle. ",10,"prior","uniform","psychological",0.24,"O"
1,168612,"prior_manipulation","know when earthquakes are about to happen",1,"[100, 49, 100, 100, 49, 47, 51, 94, 100, 47, u'?']",10,"The pattern seemed to be one or two animals that have 100% then one with a lower number, then another animal with 100% or high statistic then followed by 3 or 4 with mid-ranged to low statistics. So I chose the first next animal to be 100% then lowering the following two and then higher for the 4th animal and mid range again for the final animal. ",10,"prior","half_or_deterministic","psychological",1,"K"
1,168612,"prior_manipulation","know when earthquakes are about to happen",1,"[100, 49, 100, 100, 49, 47, 51, 94, 100, 47, u'?']",10,"The pattern seemed to be one or two animals that have 100% then one with a lower number, then another animal with 100% or high statistic then followed by 3 or 4 with mid-ranged to low statistics. So I chose the first next animal to be 100% then lowering the following two and then higher for the 4th animal and mid range again for the final animal. ",10,"prior","half_or_deterministic","psychological",0.5,"L"
1,168612,"prior_manipulation","know when earthquakes are about to happen",1,"[100, 49, 100, 100, 49, 47, 51, 94, 100, 47, u'?']",10,"The pattern seemed to be one or two animals that have 100% then one with a lower number, then another animal with 100% or high statistic then followed by 3 or 4 with mid-ranged to low statistics. So I chose the first next animal to be 100% then lowering the following two and then higher for the 4th animal and mid range again for the final animal. ",10,"prior","half_or_deterministic","psychological",0.3,"M"
1,168612,"prior_manipulation","know when earthquakes are about to happen",1,"[100, 49, 100, 100, 49, 47, 51, 94, 100, 47, u'?']",10,"The pattern seemed to be one or two animals that have 100% then one with a lower number, then another animal with 100% or high statistic then followed by 3 or 4 with mid-ranged to low statistics. So I chose the first next animal to be 100% then lowering the following two and then higher for the 4th animal and mid range again for the final animal. ",10,"prior","half_or_deterministic","psychological",0.86,"N"
1,168612,"prior_manipulation","know when earthquakes are about to happen",1,"[100, 49, 100, 100, 49, 47, 51, 94, 100, 47, u'?']",10,"The pattern seemed to be one or two animals that have 100% then one with a lower number, then another animal with 100% or high statistic then followed by 3 or 4 with mid-ranged to low statistics. So I chose the first next animal to be 100% then lowering the following two and then higher for the 4th animal and mid range again for the final animal. ",10,"prior","half_or_deterministic","psychological",0.63,"O"
2,123486,"prior_manipulation","know when earthquakes are about to happen",1,"[0, 0, 0, 98, 1, 100, 98, 100, 1, 100, u'?']",10,"Following the pattern from the previous findings.",10,"prior","rare_deterministic","psychological",0,"K"
2,123486,"prior_manipulation","know when earthquakes are about to happen",1,"[0, 0, 0, 98, 1, 100, 98, 100, 1, 100, u'?']",10,"Following the pattern from the previous findings.",10,"prior","rare_deterministic","psychological",0,"L"
2,123486,"prior_manipulation","know when earthquakes are about to happen",1,"[0, 0, 0, 98, 1, 100, 98, 100, 1, 100, u'?']",10,"Following the pattern from the previous findings.",10,"prior","rare_deterministic","psychological",0,"M"
2,123486,"prior_manipulation","know when earthquakes are about to happen",1,"[0, 0, 0, 98, 1, 100, 98, 100, 1, 100, u'?']",10,"Following the pattern from the previous findings.",10,"prior","rare_deterministic","psychological",0.89,"N"
2,123486,"prior_manipulation","know when earthquakes are about to happen",1,"[0, 0, 0, 98, 1, 100, 98, 100, 1, 100, u'?']",10,"Following the pattern from the previous findings.",10,"prior","rare_deterministic","psychological",0.09,"O"
3,198216,"prior_manipulation","know when earthquakes are about to happen",1,"[100, 100, 100, 19, 27, 22, 98, 99, 26, 29, u'?']",10,"no, I guessed ",10,"prior","weak_or_deterministic","psychological",0.52,"K"
3,198216,"prior_manipulation","know when earthquakes are about to happen",1,"[100, 100, 100, 19, 27, 22, 98, 99, 26, 29, u'?']",10,"no, I guessed ",10,"prior","weak_or_deterministic","psychological",0.44,"L"
3,198216,"prior_manipulation","know when earthquakes are about to happen",1,"[100, 100, 100, 19, 27, 22, 98, 99, 26, 29, u'?']",10,"no, I guessed ",10,"prior","weak_or_deterministic","psychological",0.55,"M"
3,198216,"prior_manipulation","know when earthquakes are about to happen",1,"[100, 100, 100, 19, 27, 22, 98, 99, 26, 29, u'?']",10,"no, I guessed ",10,"prior","weak_or_deterministic","psychological",0.51,"N"
3,198216,"prior_manipulation","know when earthquakes are about to happen",1,"[100, 100, 100, 19, 27, 22, 98, 99, 26, 29, u'?']",10,"no, I guessed ",10,"prior","weak_or_deterministic","psychological",0.67,"O"
4,238352,"prior_manipulation","know when earthquakes are about to happen",1,"[99, 0, 0, 98, 96, 0, 100, 100, 0, 0, u'?']",10,"About 5 in 8 animals have this weird ability.",10,"prior","rare_deterministic","psychological",0.94,"K"
4,238352,"prior_manipulation","know when earthquakes are about to happen",1,"[99, 0, 0, 98, 96, 0, 100, 100, 0, 0, u'?']",10,"About 5 in 8 animals have this weird ability.",10,"prior","rare_deterministic","psychological",0.93,"L"
4,238352,"prior_manipulation","know when earthquakes are about to happen",1,"[99, 0, 0, 98, 96, 0, 100, 100, 0, 0, u'?']",10,"About 5 in 8 animals have this weird ability.",10,"prior","rare_deterministic","psychological",0.94,"M"
4,238352,"prior_manipulation","know when earthquakes are about to happen",1,"[99, 0, 0, 98, 96, 0, 100, 100, 0, 0, u'?']",10,"About 5 in 8 animals have this weird ability.",10,"prior","rare_deterministic","psychological",0.17,"N"
4,238352,"prior_manipulation","know when earthquakes are about to happen",1,"[99, 0, 0, 98, 96, 0, 100, 100, 0, 0, u'?']",10,"About 5 in 8 animals have this weird ability.",10,"prior","rare_deterministic","psychological",0.17,"O"
5,708638,"prior_manipulation","know when earthquakes are about to happen",1,"[73, 25, 76, 24, 75, 75, 73, 25, 25, 25, u'?']",10,"it was the % i think my partner would guess.",10,"prior","weak_or_strong","psychological",0.28,"K"
5,708638,"prior_manipulation","know when earthquakes are about to happen",1,"[73, 25, 76, 24, 75, 75, 73, 25, 25, 25, u'?']",10,"it was the % i think my partner would guess.",10,"prior","weak_or_strong","psychological",0.5,"L"
5,708638,"prior_manipulation","know when earthquakes are about to happen",1,"[73, 25, 76, 24, 75, 75, 73, 25, 25, 25, u'?']",10,"it was the % i think my partner would guess.",10,"prior","weak_or_strong","psychological",0.25,"M"
5,708638,"prior_manipulation","know when earthquakes are about to happen",1,"[73, 25, 76, 24, 75, 75, 73, 25, 25, 25, u'?']",10,"it was the % i think my partner would guess.",10,"prior","weak_or_strong","psychological",0.64,"N"
5,708638,"prior_manipulation","know when earthquakes are about to happen",1,"[73, 25, 76, 24, 75, 75, 73, 25, 25, 25, u'?']",10,"it was the % i think my partner would guess.",10,"prior","weak_or_strong","psychological",0.43,"O"
6,169944,"prior_manipulation","know when earthquakes are about to happen",1,"[48, 0, 50, 0, 51, 0, 0, 48, 52, 0, u'?']",10,"It seems when an animal is able to know when an earthquake is going happen it is close to about half of that kind of animal. ",10,"prior","rare_half","psychological",0.59,"K"
6,169944,"prior_manipulation","know when earthquakes are about to happen",1,"[48, 0, 50, 0, 51, 0, 0, 48, 52, 0, u'?']",10,"It seems when an animal is able to know when an earthquake is going happen it is close to about half of that kind of animal. ",10,"prior","rare_half","psychological",0.01,"L"
6,169944,"prior_manipulation","know when earthquakes are about to happen",1,"[48, 0, 50, 0, 51, 0, 0, 48, 52, 0, u'?']",10,"It seems when an animal is able to know when an earthquake is going happen it is close to about half of that kind of animal. ",10,"prior","rare_half","psychological",0,"M"
6,169944,"prior_manipulation","know when earthquakes are about to happen",1,"[48, 0, 50, 0, 51, 0, 0, 48, 52, 0, u'?']",10,"It seems when an animal is able to know when an earthquake is going happen it is close to about half of that kind of animal. ",10,"prior","rare_half","psychological",0.55,"N"
6,169944,"prior_manipulation","know when earthquakes are about to happen",1,"[48, 0, 50, 0, 51, 0, 0, 48, 52, 0, u'?']",10,"It seems when an animal is able to know when an earthquake is going happen it is close to about half of that kind of animal. ",10,"prior","rare_half","psychological",0.01,"O"
7,164945,"prior_manipulation","know when earthquakes are about to happen",1,"[46, 1, 1, 48, 48, 2, 45, 1, 51, 1, u'?']",10,"because the previous pattern was that almost half of a couple in a row could detect earthquakes and then next animal was low number and then  some high again",10,"prior","rare_half","psychological",0.02,"K"
7,164945,"prior_manipulation","know when earthquakes are about to happen",1,"[46, 1, 1, 48, 48, 2, 45, 1, 51, 1, u'?']",10,"because the previous pattern was that almost half of a couple in a row could detect earthquakes and then next animal was low number and then  some high again",10,"prior","rare_half","psychological",0.52,"L"
7,164945,"prior_manipulation","know when earthquakes are about to happen",1,"[46, 1, 1, 48, 48, 2, 45, 1, 51, 1, u'?']",10,"because the previous pattern was that almost half of a couple in a row could detect earthquakes and then next animal was low number and then  some high again",10,"prior","rare_half","psychological",0.52,"M"
7,164945,"prior_manipulation","know when earthquakes are about to happen",1,"[46, 1, 1, 48, 48, 2, 45, 1, 51, 1, u'?']",10,"because the previous pattern was that almost half of a couple in a row could detect earthquakes and then next animal was low number and then  some high again",10,"prior","rare_half","psychological",0.09,"N"
7,164945,"prior_manipulation","know when earthquakes are about to happen",1,"[46, 1, 1, 48, 48, 2, 45, 1, 51, 1, u'?']",10,"because the previous pattern was that almost half of a couple in a row could detect earthquakes and then next animal was low number and then  some high again",10,"prior","rare_half","psychological",0.5,"O"
8,217379,"prior_manipulation","know when earthquakes are about to happen",1,"[95, 28, 100, 96, 26, 26, 23, 97, 30, 100, u'?']",10,"The first animal scored high, the second one low, the next one higher, then things went between scoring in the 20s and a couple of 100s.",10,"prior","weak_or_deterministic","psychological",1,"K"
8,217379,"prior_manipulation","know when earthquakes are about to happen",1,"[95, 28, 100, 96, 26, 26, 23, 97, 30, 100, u'?']",10,"The first animal scored high, the second one low, the next one higher, then things went between scoring in the 20s and a couple of 100s.",10,"prior","weak_or_deterministic","psychological",0.22,"L"
8,217379,"prior_manipulation","know when earthquakes are about to happen",1,"[95, 28, 100, 96, 26, 26, 23, 97, 30, 100, u'?']",10,"The first animal scored high, the second one low, the next one higher, then things went between scoring in the 20s and a couple of 100s.",10,"prior","weak_or_deterministic","psychological",0.77,"M"
8,217379,"prior_manipulation","know when earthquakes are about to happen",1,"[95, 28, 100, 96, 26, 26, 23, 97, 30, 100, u'?']",10,"The first animal scored high, the second one low, the next one higher, then things went between scoring in the 20s and a couple of 100s.",10,"prior","weak_or_deterministic","psychological",0.14,"N"
8,217379,"prior_manipulation","know when earthquakes are about to happen",1,"[95, 28, 100, 96, 26, 26, 23, 97, 30, 100, u'?']",10,"The first animal scored high, the second one low, the next one higher, then things went between scoring in the 20s and a couple of 100s.",10,"prior","weak_or_deterministic","psychological",0.13,"O"
9,139974,"prior_manipulation","know when earthquakes are about to happen",1,"[96, 100, 98, 0, 100, 0, 97, 0, 0, 0, u'?']",10,"On previous chart, I could guess 3/5 would know when an earthquake would happen.",10,"prior","rare_deterministic","psychological",0.97,"K"
9,139974,"prior_manipulation","know when earthquakes are about to happen",1,"[96, 100, 98, 0, 100, 0, 97, 0, 0, 0, u'?']",10,"On previous chart, I could guess 3/5 would know when an earthquake would happen.",10,"prior","rare_deterministic","psychological",0.02,"L"
9,139974,"prior_manipulation","know when earthquakes are about to happen",1,"[96, 100, 98, 0, 100, 0, 97, 0, 0, 0, u'?']",10,"On previous chart, I could guess 3/5 would know when an earthquake would happen.",10,"prior","rare_deterministic","psychological",0.89,"M"
9,139974,"prior_manipulation","know when earthquakes are about to happen",1,"[96, 100, 98, 0, 100, 0, 97, 0, 0, 0, u'?']",10,"On previous chart, I could guess 3/5 would know when an earthquake would happen.",10,"prior","rare_deterministic","psychological",0.01,"N"
9,139974,"prior_manipulation","know when earthquakes are about to happen",1,"[96, 100, 98, 0, 100, 0, 97, 0, 0, 0, u'?']",10,"On previous chart, I could guess 3/5 would know when an earthquake would happen.",10,"prior","rare_deterministic","psychological",0.9,"O"
10,147700,"prior_manipulation","know when earthquakes are about to happen",1,"[20, 45, 30, 0, 5, 80, 55, 95, 70, 100, u'?']",10,"I gave most of the animals the ability to know when earthquakes are about to happen because most of the examples included animals that know when earthquakes are about to happen. However, I honestly just guessed otherwise.",10,"prior","uniform","psychological",0.48,"K"
10,147700,"prior_manipulation","know when earthquakes are about to happen",1,"[20, 45, 30, 0, 5, 80, 55, 95, 70, 100, u'?']",10,"I gave most of the animals the ability to know when earthquakes are about to happen because most of the examples included animals that know when earthquakes are about to happen. However, I honestly just guessed otherwise.",10,"prior","uniform","psychological",0.84,"L"
10,147700,"prior_manipulation","know when earthquakes are about to happen",1,"[20, 45, 30, 0, 5, 80, 55, 95, 70, 100, u'?']",10,"I gave most of the animals the ability to know when earthquakes are about to happen because most of the examples included animals that know when earthquakes are about to happen. However, I honestly just guessed otherwise.",10,"prior","uniform","psychological",0.05,"M"
10,147700,"prior_manipulation","know when earthquakes are about to happen",1,"[20, 45, 30, 0, 5, 80, 55, 95, 70, 100, u'?']",10,"I gave most of the animals the ability to know when earthquakes are about to happen because most of the examples included animals that know when earthquakes are about to happen. However, I honestly just guessed otherwise.",10,"prior","uniform","psychological",0,"N"
10,147700,"prior_manipulation","know when earthquakes are about to happen",1,"[20, 45, 30, 0, 5, 80, 55, 95, 70, 100, u'?']",10,"I gave most of the animals the ability to know when earthquakes are about to happen because most of the examples included animals that know when earthquakes are about to happen. However, I honestly just guessed otherwise.",10,"prior","uniform","psychological",0.9,"O"
11,65410,"prior_manipulation","know when earthquakes are about to happen",1,"[100, 74, 76, 100, 76, 100, 100, 74, 100, 75, u'?']",10,"similar pattern",10,"prior","strong_or_deterministic","psychological",0.82,"K"
11,65410,"prior_manipulation","know when earthquakes are about to happen",1,"[100, 74, 76, 100, 76, 100, 100, 74, 100, 75, u'?']",10,"similar pattern",10,"prior","strong_or_deterministic","psychological",0.73,"L"
11,65410,"prior_manipulation","know when earthquakes are about to happen",1,"[100, 74, 76, 100, 76, 100, 100, 74, 100, 75, u'?']",10,"similar pattern",10,"prior","strong_or_deterministic","psychological",1,"M"
11,65410,"prior_manipulation","know when earthquakes are about to happen",1,"[100, 74, 76, 100, 76, 100, 100, 74, 100, 75, u'?']",10,"similar pattern",10,"prior","strong_or_deterministic","psychological",0.82,"N"
11,65410,"prior_manipulation","know when earthquakes are about to happen",1,"[100, 74, 76, 100, 76, 100, 100, 74, 100, 75, u'?']",10,"similar pattern",10,"prior","strong_or_deterministic","psychological",1,"O"
12,38434,"prior_manipulation","know when earthquakes are about to happen",1,"[100, 0, 0, 100, 0, 1, 1, 100, 99, 100, u'?']",10,"A gut feeling based on the info",10,"prior","rare_deterministic","psychological",0.48,"K"
12,38434,"prior_manipulation","know when earthquakes are about to happen",1,"[100, 0, 0, 100, 0, 1, 1, 100, 99, 100, u'?']",10,"A gut feeling based on the info",10,"prior","rare_deterministic","psychological",0.42,"L"
12,38434,"prior_manipulation","know when earthquakes are about to happen",1,"[100, 0, 0, 100, 0, 1, 1, 100, 99, 100, u'?']",10,"A gut feeling based on the info",10,"prior","rare_deterministic","psychological",0.44,"M"
12,38434,"prior_manipulation","know when earthquakes are about to happen",1,"[100, 0, 0, 100, 0, 1, 1, 100, 99, 100, u'?']",10,"A gut feeling based on the info",10,"prior","rare_deterministic","psychological",0.46,"N"
12,38434,"prior_manipulation","know when earthquakes are about to happen",1,"[100, 0, 0, 100, 0, 1, 1, 100, 99, 100, u'?']",10,"A gut feeling based on the info",10,"prior","rare_deterministic","psychological",0.55,"O"
13,138205,"prior_manipulation","know when earthquakes are about to happen",1,"[74, 77, 1, 1, 75, 77, 78, 0, 0, 0, u'?']",10,"It follows a similar pattern as animals A, B, C, D, and E. I made a good educated guess based on what I have learned so far.",10,"prior","rare_strong","psychological",0.66,"K"
13,138205,"prior_manipulation","know when earthquakes are about to happen",1,"[74, 77, 1, 1, 75, 77, 78, 0, 0, 0, u'?']",10,"It follows a similar pattern as animals A, B, C, D, and E. I made a good educated guess based on what I have learned so far.",10,"prior","rare_strong","psychological",0.7,"L"
13,138205,"prior_manipulation","know when earthquakes are about to happen",1,"[74, 77, 1, 1, 75, 77, 78, 0, 0, 0, u'?']",10,"It follows a similar pattern as animals A, B, C, D, and E. I made a good educated guess based on what I have learned so far.",10,"prior","rare_strong","psychological",0.03,"M"
13,138205,"prior_manipulation","know when earthquakes are about to happen",1,"[74, 77, 1, 1, 75, 77, 78, 0, 0, 0, u'?']",10,"It follows a similar pattern as animals A, B, C, D, and E. I made a good educated guess based on what I have learned so far.",10,"prior","rare_strong","psychological",0.02,"N"
13,138205,"prior_manipulation","know when earthquakes are about to happen",1,"[74, 77, 1, 1, 75, 77, 78, 0, 0, 0, u'?']",10,"It follows a similar pattern as animals A, B, C, D, and E. I made a good educated guess based on what I have learned so far.",10,"prior","rare_strong","psychological",0.7,"O"
14,188148,"prior_manipulation","know when earthquakes are about to happen",1,"[75, 75, 75, 1, 0, 72, 0, 74, 1, 0, u'?']",10,"It sort of followed the up/down pattern of the precious animals, after ABC. It should be random.",10,"prior","rare_strong","psychological",0.65,"K"
14,188148,"prior_manipulation","know when earthquakes are about to happen",1,"[75, 75, 75, 1, 0, 72, 0, 74, 1, 0, u'?']",10,"It sort of followed the up/down pattern of the precious animals, after ABC. It should be random.",10,"prior","rare_strong","psychological",0.04,"L"
14,188148,"prior_manipulation","know when earthquakes are about to happen",1,"[75, 75, 75, 1, 0, 72, 0, 74, 1, 0, u'?']",10,"It sort of followed the up/down pattern of the precious animals, after ABC. It should be random.",10,"prior","rare_strong","psychological",0.65,"M"
14,188148,"prior_manipulation","know when earthquakes are about to happen",1,"[75, 75, 75, 1, 0, 72, 0, 74, 1, 0, u'?']",10,"It sort of followed the up/down pattern of the precious animals, after ABC. It should be random.",10,"prior","rare_strong","psychological",0.04,"N"
14,188148,"prior_manipulation","know when earthquakes are about to happen",1,"[75, 75, 75, 1, 0, 72, 0, 74, 1, 0, u'?']",10,"It sort of followed the up/down pattern of the precious animals, after ABC. It should be random.",10,"prior","rare_strong","psychological",0.64,"O"
15,105113,"prior_manipulation","know when earthquakes are about to happen",1,"[50, 0, 50, 52, 49, 52, 0, 0, 0, 0, u'?']",10,"it seemed that the most likely patterns were animals that either did not know at all when earthquakes were going to happen or animals that knew this information about half of the time",10,"prior","rare_half","psychological",0.5,"K"
15,105113,"prior_manipulation","know when earthquakes are about to happen",1,"[50, 0, 50, 52, 49, 52, 0, 0, 0, 0, u'?']",10,"it seemed that the most likely patterns were animals that either did not know at all when earthquakes were going to happen or animals that knew this information about half of the time",10,"prior","rare_half","psychological",0.41,"L"
15,105113,"prior_manipulation","know when earthquakes are about to happen",1,"[50, 0, 50, 52, 49, 52, 0, 0, 0, 0, u'?']",10,"it seemed that the most likely patterns were animals that either did not know at all when earthquakes were going to happen or animals that knew this information about half of the time",10,"prior","rare_half","psychological",0,"M"
15,105113,"prior_manipulation","know when earthquakes are about to happen",1,"[50, 0, 50, 52, 49, 52, 0, 0, 0, 0, u'?']",10,"it seemed that the most likely patterns were animals that either did not know at all when earthquakes were going to happen or animals that knew this information about half of the time",10,"prior","rare_half","psychological",0.54,"N"
15,105113,"prior_manipulation","know when earthquakes are about to happen",1,"[50, 0, 50, 52, 49, 52, 0, 0, 0, 0, u'?']",10,"it seemed that the most likely patterns were animals that either did not know at all when earthquakes were going to happen or animals that knew this information about half of the time",10,"prior","rare_half","psychological",0.01,"O"
16,219000,"prior_manipulation","know when earthquakes are about to happen",1,"[77, 76, 100, 100, 100, 97, 75, 96, 75, 74, u'?']",10,"Because after going up, the trend started going down.",10,"prior","strong_or_deterministic","psychological",0.64,"K"
16,219000,"prior_manipulation","know when earthquakes are about to happen",1,"[77, 76, 100, 100, 100, 97, 75, 96, 75, 74, u'?']",10,"Because after going up, the trend started going down.",10,"prior","strong_or_deterministic","psychological",0.53,"L"
16,219000,"prior_manipulation","know when earthquakes are about to happen",1,"[77, 76, 100, 100, 100, 97, 75, 96, 75, 74, u'?']",10,"Because after going up, the trend started going down.",10,"prior","strong_or_deterministic","psychological",0.49,"M"
16,219000,"prior_manipulation","know when earthquakes are about to happen",1,"[77, 76, 100, 100, 100, 97, 75, 96, 75, 74, u'?']",10,"Because after going up, the trend started going down.",10,"prior","strong_or_deterministic","psychological",0.37,"N"
16,219000,"prior_manipulation","know when earthquakes are about to happen",1,"[77, 76, 100, 100, 100, 97, 75, 96, 75, 74, u'?']",10,"Because after going up, the trend started going down.",10,"prior","strong_or_deterministic","psychological",0.28,"O"
17,133080,"prior_manipulation","know when earthquakes are about to happen",1,"[44, 52, 100, 49, 50, 97, 100, 100, 100, 47, u'?']",10,"Some were at around 50 and others were at 100",10,"prior","half_or_deterministic","psychological",0.47,"K"
17,133080,"prior_manipulation","know when earthquakes are about to happen",1,"[44, 52, 100, 49, 50, 97, 100, 100, 100, 47, u'?']",10,"Some were at around 50 and others were at 100",10,"prior","half_or_deterministic","psychological",1,"L"
17,133080,"prior_manipulation","know when earthquakes are about to happen",1,"[44, 52, 100, 49, 50, 97, 100, 100, 100, 47, u'?']",10,"Some were at around 50 and others were at 100",10,"prior","half_or_deterministic","psychological",0.46,"M"
17,133080,"prior_manipulation","know when earthquakes are about to happen",1,"[44, 52, 100, 49, 50, 97, 100, 100, 100, 47, u'?']",10,"Some were at around 50 and others were at 100",10,"prior","half_or_deterministic","psychological",1,"N"
17,133080,"prior_manipulation","know when earthquakes are about to happen",1,"[44, 52, 100, 49, 50, 97, 100, 100, 100, 47, u'?']",10,"Some were at around 50 and others were at 100",10,"prior","half_or_deterministic","psychological",1,"O"
18,124781,"prior_manipulation","know when earthquakes are about to happen",1,"[78, 30, 77, 21, 78, 74, 23, 73, 22, 24, u'?']",10,"I was trying to remember.  I think most were in the 20% range.",10,"prior","weak_or_strong","psychological",0.67,"K"
18,124781,"prior_manipulation","know when earthquakes are about to happen",1,"[78, 30, 77, 21, 78, 74, 23, 73, 22, 24, u'?']",10,"I was trying to remember.  I think most were in the 20% range.",10,"prior","weak_or_strong","psychological",0.2,"L"
18,124781,"prior_manipulation","know when earthquakes are about to happen",1,"[78, 30, 77, 21, 78, 74, 23, 73, 22, 24, u'?']",10,"I was trying to remember.  I think most were in the 20% range.",10,"prior","weak_or_strong","psychological",0.11,"M"
18,124781,"prior_manipulation","know when earthquakes are about to happen",1,"[78, 30, 77, 21, 78, 74, 23, 73, 22, 24, u'?']",10,"I was trying to remember.  I think most were in the 20% range.",10,"prior","weak_or_strong","psychological",0.21,"N"
18,124781,"prior_manipulation","know when earthquakes are about to happen",1,"[78, 30, 77, 21, 78, 74, 23, 73, 22, 24, u'?']",10,"I was trying to remember.  I think most were in the 20% range.",10,"prior","weak_or_strong","psychological",0.27,"O"
19,166525,"prior_manipulation","know when earthquakes are about to happen",1,"[0, 0, 53, 55, 48, 2, 47, 50, 1, 2, u'?']",10,"Because there seemed to be a pattern in which animals could predict earthquakes, at first there were quite a few that couldn&quotechart, followed by some that could, then less than before that couldn&quotechart.",10,"prior","rare_half","psychological",0.37,"K"
19,166525,"prior_manipulation","know when earthquakes are about to happen",1,"[0, 0, 53, 55, 48, 2, 47, 50, 1, 2, u'?']",10,"Because there seemed to be a pattern in which animals could predict earthquakes, at first there were quite a few that couldn&quotechart, followed by some that could, then less than before that couldn&quotechart.",10,"prior","rare_half","psychological",0.32,"L"
19,166525,"prior_manipulation","know when earthquakes are about to happen",1,"[0, 0, 53, 55, 48, 2, 47, 50, 1, 2, u'?']",10,"Because there seemed to be a pattern in which animals could predict earthquakes, at first there were quite a few that couldn&quotechart, followed by some that could, then less than before that couldn&quotechart.",10,"prior","rare_half","psychological",0.03,"M"
19,166525,"prior_manipulation","know when earthquakes are about to happen",1,"[0, 0, 53, 55, 48, 2, 47, 50, 1, 2, u'?']",10,"Because there seemed to be a pattern in which animals could predict earthquakes, at first there were quite a few that couldn&quotechart, followed by some that could, then less than before that couldn&quotechart.",10,"prior","rare_half","psychological",0.03,"N"
19,166525,"prior_manipulation","know when earthquakes are about to happen",1,"[0, 0, 53, 55, 48, 2, 47, 50, 1, 2, u'?']",10,"Because there seemed to be a pattern in which animals could predict earthquakes, at first there were quite a few that couldn&quotechart, followed by some that could, then less than before that couldn&quotechart.",10,"prior","rare_half","psychological",0.28,"O"
20,379680,"prior_manipulation","know when earthquakes are about to happen",1,"[75, 1, 0, 0, 0, 70, 75, 76, 0, 74, u'?']",10,"I divide the total of earthquakes by the total of animals in my head just guessing that would work.",10,"prior","rare_strong","psychological",0.27,"K"
20,379680,"prior_manipulation","know when earthquakes are about to happen",1,"[75, 1, 0, 0, 0, 70, 75, 76, 0, 74, u'?']",10,"I divide the total of earthquakes by the total of animals in my head just guessing that would work.",10,"prior","rare_strong","psychological",0.25,"L"
20,379680,"prior_manipulation","know when earthquakes are about to happen",1,"[75, 1, 0, 0, 0, 70, 75, 76, 0, 74, u'?']",10,"I divide the total of earthquakes by the total of animals in my head just guessing that would work.",10,"prior","rare_strong","psychological",0.26,"M"
20,379680,"prior_manipulation","know when earthquakes are about to happen",1,"[75, 1, 0, 0, 0, 70, 75, 76, 0, 74, u'?']",10,"I divide the total of earthquakes by the total of animals in my head just guessing that would work.",10,"prior","rare_strong","psychological",0.26,"N"
20,379680,"prior_manipulation","know when earthquakes are about to happen",1,"[75, 1, 0, 0, 0, 70, 75, 76, 0, 74, u'?']",10,"I divide the total of earthquakes by the total of animals in my head just guessing that would work.",10,"prior","rare_strong","psychological",0.28,"O"
21,136164,"prior_manipulation","know when earthquakes are about to happen",1,"[51, 0, 2, 48, 0, 49, 51, 0, 48, 0, u'?']",10,"This mimics the other animals.  We will see if the pattern holds.",10,"prior","rare_half","psychological",0.41,"K"
21,136164,"prior_manipulation","know when earthquakes are about to happen",1,"[51, 0, 2, 48, 0, 49, 51, 0, 48, 0, u'?']",10,"This mimics the other animals.  We will see if the pattern holds.",10,"prior","rare_half","psychological",0.04,"L"
21,136164,"prior_manipulation","know when earthquakes are about to happen",1,"[51, 0, 2, 48, 0, 49, 51, 0, 48, 0, u'?']",10,"This mimics the other animals.  We will see if the pattern holds.",10,"prior","rare_half","psychological",0.44,"M"
21,136164,"prior_manipulation","know when earthquakes are about to happen",1,"[51, 0, 2, 48, 0, 49, 51, 0, 48, 0, u'?']",10,"This mimics the other animals.  We will see if the pattern holds.",10,"prior","rare_half","psychological",0.02,"N"
21,136164,"prior_manipulation","know when earthquakes are about to happen",1,"[51, 0, 2, 48, 0, 49, 51, 0, 48, 0, u'?']",10,"This mimics the other animals.  We will see if the pattern holds.",10,"prior","rare_half","psychological",0.45,"O"
22,83952,"prior_manipulation","know when earthquakes are about to happen",1,"[75, 0, 75, 0, 75, 0, 0, 1, 74, 77, u'?']",10,"I really did not focus on the pattern as well as I should have, but I do remember there being some with low percentages, and others with high ones, and they would alternate in a way.",10,"prior","rare_strong","psychological",0.03,"K"
22,83952,"prior_manipulation","know when earthquakes are about to happen",1,"[75, 0, 75, 0, 75, 0, 0, 1, 74, 77, u'?']",10,"I really did not focus on the pattern as well as I should have, but I do remember there being some with low percentages, and others with high ones, and they would alternate in a way.",10,"prior","rare_strong","psychological",0.86,"L"
22,83952,"prior_manipulation","know when earthquakes are about to happen",1,"[75, 0, 75, 0, 75, 0, 0, 1, 74, 77, u'?']",10,"I really did not focus on the pattern as well as I should have, but I do remember there being some with low percentages, and others with high ones, and they would alternate in a way.",10,"prior","rare_strong","psychological",0.03,"M"
22,83952,"prior_manipulation","know when earthquakes are about to happen",1,"[75, 0, 75, 0, 75, 0, 0, 1, 74, 77, u'?']",10,"I really did not focus on the pattern as well as I should have, but I do remember there being some with low percentages, and others with high ones, and they would alternate in a way.",10,"prior","rare_strong","psychological",0.84,"N"
22,83952,"prior_manipulation","know when earthquakes are about to happen",1,"[75, 0, 75, 0, 75, 0, 0, 1, 74, 77, u'?']",10,"I really did not focus on the pattern as well as I should have, but I do remember there being some with low percentages, and others with high ones, and they would alternate in a way.",10,"prior","rare_strong","psychological",0.04,"O"
23,60378,"prior_manipulation","know when earthquakes are about to happen",1,"[25, 76, 26, 74, 75, 74, 73, 26, 25, 25, u'?']",10,"It somewhat resembles a pattern of what I was seeing.",10,"prior","weak_or_strong","psychological",0.78,"K"
23,60378,"prior_manipulation","know when earthquakes are about to happen",1,"[25, 76, 26, 74, 75, 74, 73, 26, 25, 25, u'?']",10,"It somewhat resembles a pattern of what I was seeing.",10,"prior","weak_or_strong","psychological",0.2,"L"
23,60378,"prior_manipulation","know when earthquakes are about to happen",1,"[25, 76, 26, 74, 75, 74, 73, 26, 25, 25, u'?']",10,"It somewhat resembles a pattern of what I was seeing.",10,"prior","weak_or_strong","psychological",0.22,"M"
23,60378,"prior_manipulation","know when earthquakes are about to happen",1,"[25, 76, 26, 74, 75, 74, 73, 26, 25, 25, u'?']",10,"It somewhat resembles a pattern of what I was seeing.",10,"prior","weak_or_strong","psychological",0.75,"N"
23,60378,"prior_manipulation","know when earthquakes are about to happen",1,"[25, 76, 26, 74, 75, 74, 73, 26, 25, 25, u'?']",10,"It somewhat resembles a pattern of what I was seeing.",10,"prior","weak_or_strong","psychological",0.22,"O"
24,294318,"prior_manipulation","know when earthquakes are about to happen",1,"[99, 2, 1, 0, 97, 0, 0, 94, 100, 99, u'?']",10,"Not sure, somewhat random assignment",10,"prior","rare_deterministic","psychological",0.06,"K"
24,294318,"prior_manipulation","know when earthquakes are about to happen",1,"[99, 2, 1, 0, 97, 0, 0, 94, 100, 99, u'?']",10,"Not sure, somewhat random assignment",10,"prior","rare_deterministic","psychological",0.06,"L"
24,294318,"prior_manipulation","know when earthquakes are about to happen",1,"[99, 2, 1, 0, 97, 0, 0, 94, 100, 99, u'?']",10,"Not sure, somewhat random assignment",10,"prior","rare_deterministic","psychological",0.27,"M"
24,294318,"prior_manipulation","know when earthquakes are about to happen",1,"[99, 2, 1, 0, 97, 0, 0, 94, 100, 99, u'?']",10,"Not sure, somewhat random assignment",10,"prior","rare_deterministic","psychological",0.72,"N"
24,294318,"prior_manipulation","know when earthquakes are about to happen",1,"[99, 2, 1, 0, 97, 0, 0, 94, 100, 99, u'?']",10,"Not sure, somewhat random assignment",10,"prior","rare_deterministic","psychological",0.1,"O"
25,1218756,"prior_manipulation","know when earthquakes are about to happen",1,"[78, 79, 95, 98, 77, 98, 98, 72, 97, 73, u'?']",10,"It seems that every other species has a higher rate",10,"prior","strong_or_deterministic","psychological",0.81,"K"
25,1218756,"prior_manipulation","know when earthquakes are about to happen",1,"[78, 79, 95, 98, 77, 98, 98, 72, 97, 73, u'?']",10,"It seems that every other species has a higher rate",10,"prior","strong_or_deterministic","psychological",0.65,"L"
25,1218756,"prior_manipulation","know when earthquakes are about to happen",1,"[78, 79, 95, 98, 77, 98, 98, 72, 97, 73, u'?']",10,"It seems that every other species has a higher rate",10,"prior","strong_or_deterministic","psychological",0.82,"M"
25,1218756,"prior_manipulation","know when earthquakes are about to happen",1,"[78, 79, 95, 98, 77, 98, 98, 72, 97, 73, u'?']",10,"It seems that every other species has a higher rate",10,"prior","strong_or_deterministic","psychological",0.66,"N"
25,1218756,"prior_manipulation","know when earthquakes are about to happen",1,"[78, 79, 95, 98, 77, 98, 98, 72, 97, 73, u'?']",10,"It seems that every other species has a higher rate",10,"prior","strong_or_deterministic","psychological",0.86,"O"
26,74121,"prior_manipulation","know when earthquakes are about to happen",1,"[26, 19, 24, 77, 74, 73, 76, 27, 25, 74, u'?']",10,"I felt the range was typically in the 20s and 70s which I tried to reflect",10,"prior","weak_or_strong","psychological",0.21,"K"
26,74121,"prior_manipulation","know when earthquakes are about to happen",1,"[26, 19, 24, 77, 74, 73, 76, 27, 25, 74, u'?']",10,"I felt the range was typically in the 20s and 70s which I tried to reflect",10,"prior","weak_or_strong","psychological",0.23,"L"
26,74121,"prior_manipulation","know when earthquakes are about to happen",1,"[26, 19, 24, 77, 74, 73, 76, 27, 25, 74, u'?']",10,"I felt the range was typically in the 20s and 70s which I tried to reflect",10,"prior","weak_or_strong","psychological",0.24,"M"
26,74121,"prior_manipulation","know when earthquakes are about to happen",1,"[26, 19, 24, 77, 74, 73, 76, 27, 25, 74, u'?']",10,"I felt the range was typically in the 20s and 70s which I tried to reflect",10,"prior","weak_or_strong","psychological",0.75,"N"
26,74121,"prior_manipulation","know when earthquakes are about to happen",1,"[26, 19, 24, 77, 74, 73, 76, 27, 25, 74, u'?']",10,"I felt the range was typically in the 20s and 70s which I tried to reflect",10,"prior","weak_or_strong","psychological",0.71,"O"
27,152006,"prior_manipulation","know when earthquakes are about to happen",1,"[73, 77, 0, 0, 0, 0, 78, 77, 74, 1, u'?']",10,"I&quotechard expect about half to be ~75% and the other half zero or near zero, just based on the previously species.  Of course there is no way at all of knowing which will be which, so that is an outright guess.",10,"prior","rare_strong","psychological",0.75,"K"
27,152006,"prior_manipulation","know when earthquakes are about to happen",1,"[73, 77, 0, 0, 0, 0, 78, 77, 74, 1, u'?']",10,"I&quotechard expect about half to be ~75% and the other half zero or near zero, just based on the previously species.  Of course there is no way at all of knowing which will be which, so that is an outright guess.",10,"prior","rare_strong","psychological",0.75,"L"
27,152006,"prior_manipulation","know when earthquakes are about to happen",1,"[73, 77, 0, 0, 0, 0, 78, 77, 74, 1, u'?']",10,"I&quotechard expect about half to be ~75% and the other half zero or near zero, just based on the previously species.  Of course there is no way at all of knowing which will be which, so that is an outright guess.",10,"prior","rare_strong","psychological",0,"M"
27,152006,"prior_manipulation","know when earthquakes are about to happen",1,"[73, 77, 0, 0, 0, 0, 78, 77, 74, 1, u'?']",10,"I&quotechard expect about half to be ~75% and the other half zero or near zero, just based on the previously species.  Of course there is no way at all of knowing which will be which, so that is an outright guess.",10,"prior","rare_strong","psychological",0,"N"
27,152006,"prior_manipulation","know when earthquakes are about to happen",1,"[73, 77, 0, 0, 0, 0, 78, 77, 74, 1, u'?']",10,"I&quotechard expect about half to be ~75% and the other half zero or near zero, just based on the previously species.  Of course there is no way at all of knowing which will be which, so that is an outright guess.",10,"prior","rare_strong","psychological",0,"O"
28,154219,"prior_manipulation","know when earthquakes are about to happen",1,"[0, 53, 0, 1, 0, 43, 53, 0, 53, 49, u'?']",10,"roughly 50 percent of the species could detect with significant volume.  So, I reflected that for these 5",10,"prior","rare_half","psychological",0.01,"K"
28,154219,"prior_manipulation","know when earthquakes are about to happen",1,"[0, 53, 0, 1, 0, 43, 53, 0, 53, 49, u'?']",10,"roughly 50 percent of the species could detect with significant volume.  So, I reflected that for these 5",10,"prior","rare_half","psychological",0.41,"L"
28,154219,"prior_manipulation","know when earthquakes are about to happen",1,"[0, 53, 0, 1, 0, 43, 53, 0, 53, 49, u'?']",10,"roughly 50 percent of the species could detect with significant volume.  So, I reflected that for these 5",10,"prior","rare_half","psychological",0.55,"M"
28,154219,"prior_manipulation","know when earthquakes are about to happen",1,"[0, 53, 0, 1, 0, 43, 53, 0, 53, 49, u'?']",10,"roughly 50 percent of the species could detect with significant volume.  So, I reflected that for these 5",10,"prior","rare_half","psychological",0.01,"N"
28,154219,"prior_manipulation","know when earthquakes are about to happen",1,"[0, 53, 0, 1, 0, 43, 53, 0, 53, 49, u'?']",10,"roughly 50 percent of the species could detect with significant volume.  So, I reflected that for these 5",10,"prior","rare_half","psychological",0.46,"O"
29,87417,"prior_manipulation","know when earthquakes are about to happen",1,"[100, 28, 24, 100, 100, 29, 100, 21, 98, 26, u'?']",10,"I randomly chose between 100% and ~25%.",10,"prior","weak_or_deterministic","psychological",1,"K"
29,87417,"prior_manipulation","know when earthquakes are about to happen",1,"[100, 28, 24, 100, 100, 29, 100, 21, 98, 26, u'?']",10,"I randomly chose between 100% and ~25%.",10,"prior","weak_or_deterministic","psychological",0.27,"L"
29,87417,"prior_manipulation","know when earthquakes are about to happen",1,"[100, 28, 24, 100, 100, 29, 100, 21, 98, 26, u'?']",10,"I randomly chose between 100% and ~25%.",10,"prior","weak_or_deterministic","psychological",1,"M"
29,87417,"prior_manipulation","know when earthquakes are about to happen",1,"[100, 28, 24, 100, 100, 29, 100, 21, 98, 26, u'?']",10,"I randomly chose between 100% and ~25%.",10,"prior","weak_or_deterministic","psychological",1,"N"
29,87417,"prior_manipulation","know when earthquakes are about to happen",1,"[100, 28, 24, 100, 100, 29, 100, 21, 98, 26, u'?']",10,"I randomly chose between 100% and ~25%.",10,"prior","weak_or_deterministic","psychological",0.27,"O"
30,116094,"prior_manipulation","know when earthquakes are about to happen",1,"[27, 100, 24, 100, 23, 26, 96, 99, 99, 29, u'?']",10,"I tried to replicate similar findings on percentages already found and fluctuations.",10,"prior","weak_or_deterministic","psychological",0.96,"K"
30,116094,"prior_manipulation","know when earthquakes are about to happen",1,"[27, 100, 24, 100, 23, 26, 96, 99, 99, 29, u'?']",10,"I tried to replicate similar findings on percentages already found and fluctuations.",10,"prior","weak_or_deterministic","psychological",0.95,"L"
30,116094,"prior_manipulation","know when earthquakes are about to happen",1,"[27, 100, 24, 100, 23, 26, 96, 99, 99, 29, u'?']",10,"I tried to replicate similar findings on percentages already found and fluctuations.",10,"prior","weak_or_deterministic","psychological",0.22,"M"
30,116094,"prior_manipulation","know when earthquakes are about to happen",1,"[27, 100, 24, 100, 23, 26, 96, 99, 99, 29, u'?']",10,"I tried to replicate similar findings on percentages already found and fluctuations.",10,"prior","weak_or_deterministic","psychological",0.22,"N"
30,116094,"prior_manipulation","know when earthquakes are about to happen",1,"[27, 100, 24, 100, 23, 26, 96, 99, 99, 29, u'?']",10,"I tried to replicate similar findings on percentages already found and fluctuations.",10,"prior","weak_or_deterministic","psychological",0.99,"O"
31,77843,"prior_manipulation","know when earthquakes are about to happen",1,"[50, 100, 99, 47, 100, 98, 51, 48, 50, 97, u'?']",10,"Most of them are either 50 or 100 and more being 50",10,"prior","half_or_deterministic","psychological",0.51,"K"
31,77843,"prior_manipulation","know when earthquakes are about to happen",1,"[50, 100, 99, 47, 100, 98, 51, 48, 50, 97, u'?']",10,"Most of them are either 50 or 100 and more being 50",10,"prior","half_or_deterministic","psychological",0.51,"L"
31,77843,"prior_manipulation","know when earthquakes are about to happen",1,"[50, 100, 99, 47, 100, 98, 51, 48, 50, 97, u'?']",10,"Most of them are either 50 or 100 and more being 50",10,"prior","half_or_deterministic","psychological",0.52,"M"
31,77843,"prior_manipulation","know when earthquakes are about to happen",1,"[50, 100, 99, 47, 100, 98, 51, 48, 50, 97, u'?']",10,"Most of them are either 50 or 100 and more being 50",10,"prior","half_or_deterministic","psychological",0.52,"N"
31,77843,"prior_manipulation","know when earthquakes are about to happen",1,"[50, 100, 99, 47, 100, 98, 51, 48, 50, 97, u'?']",10,"Most of them are either 50 or 100 and more being 50",10,"prior","half_or_deterministic","psychological",0.52,"O"
32,128438,"prior_manipulation","know when earthquakes are about to happen",1,"[1, 47, 51, 0, 52, 0, 52, 0, 51, 1, u'?']",10,"it seemed like it was going back in forth between 0-1% and 47-52% with the animals so i just chose to guess around those numbers",10,"prior","rare_half","psychological",0.03,"K"
32,128438,"prior_manipulation","know when earthquakes are about to happen",1,"[1, 47, 51, 0, 52, 0, 52, 0, 51, 1, u'?']",10,"it seemed like it was going back in forth between 0-1% and 47-52% with the animals so i just chose to guess around those numbers",10,"prior","rare_half","psychological",0.39,"L"
32,128438,"prior_manipulation","know when earthquakes are about to happen",1,"[1, 47, 51, 0, 52, 0, 52, 0, 51, 1, u'?']",10,"it seemed like it was going back in forth between 0-1% and 47-52% with the animals so i just chose to guess around those numbers",10,"prior","rare_half","psychological",0.43,"M"
32,128438,"prior_manipulation","know when earthquakes are about to happen",1,"[1, 47, 51, 0, 52, 0, 52, 0, 51, 1, u'?']",10,"it seemed like it was going back in forth between 0-1% and 47-52% with the animals so i just chose to guess around those numbers",10,"prior","rare_half","psychological",0.04,"N"
32,128438,"prior_manipulation","know when earthquakes are about to happen",1,"[1, 47, 51, 0, 52, 0, 52, 0, 51, 1, u'?']",10,"it seemed like it was going back in forth between 0-1% and 47-52% with the animals so i just chose to guess around those numbers",10,"prior","rare_half","psychological",0.32,"O"
33,146958,"prior_manipulation","know when earthquakes are about to happen",1,"[2, 0, 28, 0, 2, 0, 22, 28, 29, 25, u'?']",10,"It seems like after every 2-3 animals, some have around 20% of knowing when the earthquake will happen.",10,"prior","rare_weak","psychological",0,"K"
33,146958,"prior_manipulation","know when earthquakes are about to happen",1,"[2, 0, 28, 0, 2, 0, 22, 28, 29, 25, u'?']",10,"It seems like after every 2-3 animals, some have around 20% of knowing when the earthquake will happen.",10,"prior","rare_weak","psychological",0,"L"
33,146958,"prior_manipulation","know when earthquakes are about to happen",1,"[2, 0, 28, 0, 2, 0, 22, 28, 29, 25, u'?']",10,"It seems like after every 2-3 animals, some have around 20% of knowing when the earthquake will happen.",10,"prior","rare_weak","psychological",0.23,"M"
33,146958,"prior_manipulation","know when earthquakes are about to happen",1,"[2, 0, 28, 0, 2, 0, 22, 28, 29, 25, u'?']",10,"It seems like after every 2-3 animals, some have around 20% of knowing when the earthquake will happen.",10,"prior","rare_weak","psychological",0,"N"
33,146958,"prior_manipulation","know when earthquakes are about to happen",1,"[2, 0, 28, 0, 2, 0, 22, 28, 29, 25, u'?']",10,"It seems like after every 2-3 animals, some have around 20% of knowing when the earthquake will happen.",10,"prior","rare_weak","psychological",0,"O"
34,524560,"prior_manipulation","know when earthquakes are about to happen",1,"[0, 22, 0, 0, 24, 1, 28, 0, 21, 27, u'?']",10,"Of the first 10 animals studies, 40% did not have any knowledge and 1 only had a 1% knowledge so that is just about half that pretty much had no clue when an earthquake was going to occur.   It is harder to do 50% of 5 in a set up like this so I made 40% with no knowledge, and one with a lower knowledge and tried to get the other two in their twenties which seems to be where the animals who had the best foreknowledge of earthquakes were.",10,"prior","rare_weak","psychological",0.2,"K"
34,524560,"prior_manipulation","know when earthquakes are about to happen",1,"[0, 22, 0, 0, 24, 1, 28, 0, 21, 27, u'?']",10,"Of the first 10 animals studies, 40% did not have any knowledge and 1 only had a 1% knowledge so that is just about half that pretty much had no clue when an earthquake was going to occur.   It is harder to do 50% of 5 in a set up like this so I made 40% with no knowledge, and one with a lower knowledge and tried to get the other two in their twenties which seems to be where the animals who had the best foreknowledge of earthquakes were.",10,"prior","rare_weak","psychological",0.01,"L"
34,524560,"prior_manipulation","know when earthquakes are about to happen",1,"[0, 22, 0, 0, 24, 1, 28, 0, 21, 27, u'?']",10,"Of the first 10 animals studies, 40% did not have any knowledge and 1 only had a 1% knowledge so that is just about half that pretty much had no clue when an earthquake was going to occur.   It is harder to do 50% of 5 in a set up like this so I made 40% with no knowledge, and one with a lower knowledge and tried to get the other two in their twenties which seems to be where the animals who had the best foreknowledge of earthquakes were.",10,"prior","rare_weak","psychological",0.23,"M"
34,524560,"prior_manipulation","know when earthquakes are about to happen",1,"[0, 22, 0, 0, 24, 1, 28, 0, 21, 27, u'?']",10,"Of the first 10 animals studies, 40% did not have any knowledge and 1 only had a 1% knowledge so that is just about half that pretty much had no clue when an earthquake was going to occur.   It is harder to do 50% of 5 in a set up like this so I made 40% with no knowledge, and one with a lower knowledge and tried to get the other two in their twenties which seems to be where the animals who had the best foreknowledge of earthquakes were.",10,"prior","rare_weak","psychological",0.02,"N"
34,524560,"prior_manipulation","know when earthquakes are about to happen",1,"[0, 22, 0, 0, 24, 1, 28, 0, 21, 27, u'?']",10,"Of the first 10 animals studies, 40% did not have any knowledge and 1 only had a 1% knowledge so that is just about half that pretty much had no clue when an earthquake was going to occur.   It is harder to do 50% of 5 in a set up like this so I made 40% with no knowledge, and one with a lower knowledge and tried to get the other two in their twenties which seems to be where the animals who had the best foreknowledge of earthquakes were.",10,"prior","rare_weak","psychological",0.13,"O"
35,147570,"prior_manipulation","know when earthquakes are about to happen",1,"[99, 21, 23, 97, 100, 100, 27, 28, 100, 24, u'?']",10,"My response is because I saw a pattern in the previous percentages, which makes me assume the pattern carries over.",10,"prior","weak_or_deterministic","psychological",0.11,"K"
35,147570,"prior_manipulation","know when earthquakes are about to happen",1,"[99, 21, 23, 97, 100, 100, 27, 28, 100, 24, u'?']",10,"My response is because I saw a pattern in the previous percentages, which makes me assume the pattern carries over.",10,"prior","weak_or_deterministic","psychological",1,"L"
35,147570,"prior_manipulation","know when earthquakes are about to happen",1,"[99, 21, 23, 97, 100, 100, 27, 28, 100, 24, u'?']",10,"My response is because I saw a pattern in the previous percentages, which makes me assume the pattern carries over.",10,"prior","weak_or_deterministic","psychological",1,"M"
35,147570,"prior_manipulation","know when earthquakes are about to happen",1,"[99, 21, 23, 97, 100, 100, 27, 28, 100, 24, u'?']",10,"My response is because I saw a pattern in the previous percentages, which makes me assume the pattern carries over.",10,"prior","weak_or_deterministic","psychological",0.11,"N"
35,147570,"prior_manipulation","know when earthquakes are about to happen",1,"[99, 21, 23, 97, 100, 100, 27, 28, 100, 24, u'?']",10,"My response is because I saw a pattern in the previous percentages, which makes me assume the pattern carries over.",10,"prior","weak_or_deterministic","psychological",0.11,"O"
36,98945,"prior_manipulation","know when earthquakes are about to happen",1,"[100, 0, 100, 0, 98, 2, 0, 99, 100, 0, u'?']",10,"No, the percentages before didn&quotechart seem to make sense without nkowing what the animals were or how they evolved. ",10,"prior","rare_deterministic","psychological",0,"K"
36,98945,"prior_manipulation","know when earthquakes are about to happen",1,"[100, 0, 100, 0, 98, 2, 0, 99, 100, 0, u'?']",10,"No, the percentages before didn&quotechart seem to make sense without nkowing what the animals were or how they evolved. ",10,"prior","rare_deterministic","psychological",0.9,"L"
36,98945,"prior_manipulation","know when earthquakes are about to happen",1,"[100, 0, 100, 0, 98, 2, 0, 99, 100, 0, u'?']",10,"No, the percentages before didn&quotechart seem to make sense without nkowing what the animals were or how they evolved. ",10,"prior","rare_deterministic","psychological",0.84,"M"
36,98945,"prior_manipulation","know when earthquakes are about to happen",1,"[100, 0, 100, 0, 98, 2, 0, 99, 100, 0, u'?']",10,"No, the percentages before didn&quotechart seem to make sense without nkowing what the animals were or how they evolved. ",10,"prior","rare_deterministic","psychological",0.02,"N"
36,98945,"prior_manipulation","know when earthquakes are about to happen",1,"[100, 0, 100, 0, 98, 2, 0, 99, 100, 0, u'?']",10,"No, the percentages before didn&quotechart seem to make sense without nkowing what the animals were or how they evolved. ",10,"prior","rare_deterministic","psychological",0.77,"O"
37,34213,"prior_manipulation","know when earthquakes are about to happen",1,"[45, 99, 53, 100, 97, 50, 49, 51, 100, 99, u'?']",10,"",10,"prior","half_or_deterministic","psychological",0.46,"K"
37,34213,"prior_manipulation","know when earthquakes are about to happen",1,"[45, 99, 53, 100, 97, 50, 49, 51, 100, 99, u'?']",10,"",10,"prior","half_or_deterministic","psychological",0.57,"L"
37,34213,"prior_manipulation","know when earthquakes are about to happen",1,"[45, 99, 53, 100, 97, 50, 49, 51, 100, 99, u'?']",10,"",10,"prior","half_or_deterministic","psychological",0.37,"M"
37,34213,"prior_manipulation","know when earthquakes are about to happen",1,"[45, 99, 53, 100, 97, 50, 49, 51, 100, 99, u'?']",10,"",10,"prior","half_or_deterministic","psychological",0.61,"N"
37,34213,"prior_manipulation","know when earthquakes are about to happen",1,"[45, 99, 53, 100, 97, 50, 49, 51, 100, 99, u'?']",10,"",10,"prior","half_or_deterministic","psychological",0.7,"O"
38,219620,"prior_manipulation","know when earthquakes are about to happen",1,"[100, 53, 95, 49, 100, 50, 99, 54, 46, 100, u'?']",10,"The A-Js tended to hover in two extremes. They were either around the 50 percentile, or they were around the 97 percentile. SO I chose the same type of numbers for this group.",10,"prior","half_or_deterministic","psychological",0.46,"K"
38,219620,"prior_manipulation","know when earthquakes are about to happen",1,"[100, 53, 95, 49, 100, 50, 99, 54, 46, 100, u'?']",10,"The A-Js tended to hover in two extremes. They were either around the 50 percentile, or they were around the 97 percentile. SO I chose the same type of numbers for this group.",10,"prior","half_or_deterministic","psychological",0.94,"L"
38,219620,"prior_manipulation","know when earthquakes are about to happen",1,"[100, 53, 95, 49, 100, 50, 99, 54, 46, 100, u'?']",10,"The A-Js tended to hover in two extremes. They were either around the 50 percentile, or they were around the 97 percentile. SO I chose the same type of numbers for this group.",10,"prior","half_or_deterministic","psychological",0.99,"M"
38,219620,"prior_manipulation","know when earthquakes are about to happen",1,"[100, 53, 95, 49, 100, 50, 99, 54, 46, 100, u'?']",10,"The A-Js tended to hover in two extremes. They were either around the 50 percentile, or they were around the 97 percentile. SO I chose the same type of numbers for this group.",10,"prior","half_or_deterministic","psychological",0.48,"N"
38,219620,"prior_manipulation","know when earthquakes are about to happen",1,"[100, 53, 95, 49, 100, 50, 99, 54, 46, 100, u'?']",10,"The A-Js tended to hover in two extremes. They were either around the 50 percentile, or they were around the 97 percentile. SO I chose the same type of numbers for this group.",10,"prior","half_or_deterministic","psychological",0.92,"O"
39,137910,"prior_manipulation","know when earthquakes are about to happen",1,"[32, 100, 100, 19, 28, 29, 100, 24, 100, 100, u'?']",10,"wild guess",10,"prior","weak_or_deterministic","psychological",0.51,"K"
39,137910,"prior_manipulation","know when earthquakes are about to happen",1,"[32, 100, 100, 19, 28, 29, 100, 24, 100, 100, u'?']",10,"wild guess",10,"prior","weak_or_deterministic","psychological",0.56,"L"
39,137910,"prior_manipulation","know when earthquakes are about to happen",1,"[32, 100, 100, 19, 28, 29, 100, 24, 100, 100, u'?']",10,"wild guess",10,"prior","weak_or_deterministic","psychological",0.61,"M"
39,137910,"prior_manipulation","know when earthquakes are about to happen",1,"[32, 100, 100, 19, 28, 29, 100, 24, 100, 100, u'?']",10,"wild guess",10,"prior","weak_or_deterministic","psychological",0.66,"N"
39,137910,"prior_manipulation","know when earthquakes are about to happen",1,"[32, 100, 100, 19, 28, 29, 100, 24, 100, 100, u'?']",10,"wild guess",10,"prior","weak_or_deterministic","psychological",0.7,"O"
40,104195,"prior_manipulation","know when earthquakes are about to happen",1,"[54, 49, 27, 24, 27, 52, 52, 25, 49, 24, u'?']",10,"It was within the range of the other animals. It was kind of random though to be honest.",10,"prior","weak_or_half","psychological",0.3,"K"
40,104195,"prior_manipulation","know when earthquakes are about to happen",1,"[54, 49, 27, 24, 27, 52, 52, 25, 49, 24, u'?']",10,"It was within the range of the other animals. It was kind of random though to be honest.",10,"prior","weak_or_half","psychological",0.44,"L"
40,104195,"prior_manipulation","know when earthquakes are about to happen",1,"[54, 49, 27, 24, 27, 52, 52, 25, 49, 24, u'?']",10,"It was within the range of the other animals. It was kind of random though to be honest.",10,"prior","weak_or_half","psychological",0.36,"M"
40,104195,"prior_manipulation","know when earthquakes are about to happen",1,"[54, 49, 27, 24, 27, 52, 52, 25, 49, 24, u'?']",10,"It was within the range of the other animals. It was kind of random though to be honest.",10,"prior","weak_or_half","psychological",0.23,"N"
40,104195,"prior_manipulation","know when earthquakes are about to happen",1,"[54, 49, 27, 24, 27, 52, 52, 25, 49, 24, u'?']",10,"It was within the range of the other animals. It was kind of random though to be honest.",10,"prior","weak_or_half","psychological",0.39,"O"
41,82412,"prior_manipulation","know when earthquakes are about to happen",1,"[100, 1, 0, 100, 0, 0, 100, 99, 100, 0, u'?']",10,"I felt there was a pattern in the order of animals",10,"prior","rare_deterministic","psychological",0,"K"
41,82412,"prior_manipulation","know when earthquakes are about to happen",1,"[100, 1, 0, 100, 0, 0, 100, 99, 100, 0, u'?']",10,"I felt there was a pattern in the order of animals",10,"prior","rare_deterministic","psychological",0,"L"
41,82412,"prior_manipulation","know when earthquakes are about to happen",1,"[100, 1, 0, 100, 0, 0, 100, 99, 100, 0, u'?']",10,"I felt there was a pattern in the order of animals",10,"prior","rare_deterministic","psychological",0.96,"M"
41,82412,"prior_manipulation","know when earthquakes are about to happen",1,"[100, 1, 0, 100, 0, 0, 100, 99, 100, 0, u'?']",10,"I felt there was a pattern in the order of animals",10,"prior","rare_deterministic","psychological",0.01,"N"
41,82412,"prior_manipulation","know when earthquakes are about to happen",1,"[100, 1, 0, 100, 0, 0, 100, 99, 100, 0, u'?']",10,"I felt there was a pattern in the order of animals",10,"prior","rare_deterministic","psychological",0.87,"O"
42,435087,"prior_manipulation","know when earthquakes are about to happen",1,"[21, 46, 21, 24, 50, 44, 48, 47, 27, 20, u'?']",10,"I tried to detect a pattern and replicate it.",10,"prior","weak_or_half","psychological",0.39,"K"
42,435087,"prior_manipulation","know when earthquakes are about to happen",1,"[21, 46, 21, 24, 50, 44, 48, 47, 27, 20, u'?']",10,"I tried to detect a pattern and replicate it.",10,"prior","weak_or_half","psychological",0.43,"L"
42,435087,"prior_manipulation","know when earthquakes are about to happen",1,"[21, 46, 21, 24, 50, 44, 48, 47, 27, 20, u'?']",10,"I tried to detect a pattern and replicate it.",10,"prior","weak_or_half","psychological",0.14,"M"
42,435087,"prior_manipulation","know when earthquakes are about to happen",1,"[21, 46, 21, 24, 50, 44, 48, 47, 27, 20, u'?']",10,"I tried to detect a pattern and replicate it.",10,"prior","weak_or_half","psychological",0.18,"N"
42,435087,"prior_manipulation","know when earthquakes are about to happen",1,"[21, 46, 21, 24, 50, 44, 48, 47, 27, 20, u'?']",10,"I tried to detect a pattern and replicate it.",10,"prior","weak_or_half","psychological",0.43,"O"
43,98466,"prior_manipulation","know when earthquakes are about to happen",1,"[0, 1, 1, 97, 1, 100, 100, 99, 100, 0, u'?']",10,"I don&quotechart know. O...maybe because it&quotechars a vowel, and Is were high.",10,"prior","rare_deterministic","psychological",0,"K"
43,98466,"prior_manipulation","know when earthquakes are about to happen",1,"[0, 1, 1, 97, 1, 100, 100, 99, 100, 0, u'?']",10,"I don&quotechart know. O...maybe because it&quotechars a vowel, and Is were high.",10,"prior","rare_deterministic","psychological",0.93,"L"
43,98466,"prior_manipulation","know when earthquakes are about to happen",1,"[0, 1, 1, 97, 1, 100, 100, 99, 100, 0, u'?']",10,"I don&quotechart know. O...maybe because it&quotechars a vowel, and Is were high.",10,"prior","rare_deterministic","psychological",0,"M"
43,98466,"prior_manipulation","know when earthquakes are about to happen",1,"[0, 1, 1, 97, 1, 100, 100, 99, 100, 0, u'?']",10,"I don&quotechart know. O...maybe because it&quotechars a vowel, and Is were high.",10,"prior","rare_deterministic","psychological",0,"N"
43,98466,"prior_manipulation","know when earthquakes are about to happen",1,"[0, 1, 1, 97, 1, 100, 100, 99, 100, 0, u'?']",10,"I don&quotechart know. O...maybe because it&quotechars a vowel, and Is were high.",10,"prior","rare_deterministic","psychological",0.98,"O"
44,45463,"prior_manipulation","know when earthquakes are about to happen",1,"[80, 100, 95, 20, 70, 45, 0, 55, 5, 30, u'?']",10,"I went by my gut feeling.",10,"prior","uniform","psychological",0.45,"K"
44,45463,"prior_manipulation","know when earthquakes are about to happen",1,"[80, 100, 95, 20, 70, 45, 0, 55, 5, 30, u'?']",10,"I went by my gut feeling.",10,"prior","uniform","psychological",0.63,"L"
44,45463,"prior_manipulation","know when earthquakes are about to happen",1,"[80, 100, 95, 20, 70, 45, 0, 55, 5, 30, u'?']",10,"I went by my gut feeling.",10,"prior","uniform","psychological",0.67,"M"
44,45463,"prior_manipulation","know when earthquakes are about to happen",1,"[80, 100, 95, 20, 70, 45, 0, 55, 5, 30, u'?']",10,"I went by my gut feeling.",10,"prior","uniform","psychological",0.81,"N"
44,45463,"prior_manipulation","know when earthquakes are about to happen",1,"[80, 100, 95, 20, 70, 45, 0, 55, 5, 30, u'?']",10,"I went by my gut feeling.",10,"prior","uniform","psychological",0.82,"O"
45,120817,"prior_manipulation","know when earthquakes are about to happen",1,"[1, 19, 23, 21, 24, 0, 0, 25, 0, 0, u'?']",10,"I have no idea, because I can&quotechart assume that the animals studied follow the trend of the order the information was given. Some of them can and some don&quotechart, but none above ~25% accuracy.",10,"prior","rare_weak","psychological",0.05,"K"
45,120817,"prior_manipulation","know when earthquakes are about to happen",1,"[1, 19, 23, 21, 24, 0, 0, 25, 0, 0, u'?']",10,"I have no idea, because I can&quotechart assume that the animals studied follow the trend of the order the information was given. Some of them can and some don&quotechart, but none above ~25% accuracy.",10,"prior","rare_weak","psychological",0.05,"L"
45,120817,"prior_manipulation","know when earthquakes are about to happen",1,"[1, 19, 23, 21, 24, 0, 0, 25, 0, 0, u'?']",10,"I have no idea, because I can&quotechart assume that the animals studied follow the trend of the order the information was given. Some of them can and some don&quotechart, but none above ~25% accuracy.",10,"prior","rare_weak","psychological",0.05,"M"
45,120817,"prior_manipulation","know when earthquakes are about to happen",1,"[1, 19, 23, 21, 24, 0, 0, 25, 0, 0, u'?']",10,"I have no idea, because I can&quotechart assume that the animals studied follow the trend of the order the information was given. Some of them can and some don&quotechart, but none above ~25% accuracy.",10,"prior","rare_weak","psychological",0.05,"N"
45,120817,"prior_manipulation","know when earthquakes are about to happen",1,"[1, 19, 23, 21, 24, 0, 0, 25, 0, 0, u'?']",10,"I have no idea, because I can&quotechart assume that the animals studied follow the trend of the order the information was given. Some of them can and some don&quotechart, but none above ~25% accuracy.",10,"prior","rare_weak","psychological",0.05,"O"
46,106008,"prior_manipulation","know when earthquakes are about to happen",1,"[0, 34, 21, 1, 1, 29, 0, 27, 25, 0, u'?']",10,"I just made a guess.",10,"prior","rare_weak","psychological",0.02,"K"
46,106008,"prior_manipulation","know when earthquakes are about to happen",1,"[0, 34, 21, 1, 1, 29, 0, 27, 25, 0, u'?']",10,"I just made a guess.",10,"prior","rare_weak","psychological",0.07,"L"
46,106008,"prior_manipulation","know when earthquakes are about to happen",1,"[0, 34, 21, 1, 1, 29, 0, 27, 25, 0, u'?']",10,"I just made a guess.",10,"prior","rare_weak","psychological",0.01,"M"
46,106008,"prior_manipulation","know when earthquakes are about to happen",1,"[0, 34, 21, 1, 1, 29, 0, 27, 25, 0, u'?']",10,"I just made a guess.",10,"prior","rare_weak","psychological",0.17,"N"
46,106008,"prior_manipulation","know when earthquakes are about to happen",1,"[0, 34, 21, 1, 1, 29, 0, 27, 25, 0, u'?']",10,"I just made a guess.",10,"prior","rare_weak","psychological",0.12,"O"
47,109460,"prior_manipulation","know when earthquakes are about to happen",1,"[25, 75, 23, 77, 22, 25, 74, 76, 23, 75, u'?']",10,"some animals know more than others so I picked a range for each animal",10,"prior","weak_or_strong","psychological",0.41,"K"
47,109460,"prior_manipulation","know when earthquakes are about to happen",1,"[25, 75, 23, 77, 22, 25, 74, 76, 23, 75, u'?']",10,"some animals know more than others so I picked a range for each animal",10,"prior","weak_or_strong","psychological",0.58,"L"
47,109460,"prior_manipulation","know when earthquakes are about to happen",1,"[25, 75, 23, 77, 22, 25, 74, 76, 23, 75, u'?']",10,"some animals know more than others so I picked a range for each animal",10,"prior","weak_or_strong","psychological",0.43,"M"
47,109460,"prior_manipulation","know when earthquakes are about to happen",1,"[25, 75, 23, 77, 22, 25, 74, 76, 23, 75, u'?']",10,"some animals know more than others so I picked a range for each animal",10,"prior","weak_or_strong","psychological",0.66,"N"
47,109460,"prior_manipulation","know when earthquakes are about to happen",1,"[25, 75, 23, 77, 22, 25, 74, 76, 23, 75, u'?']",10,"some animals know more than others so I picked a range for each animal",10,"prior","weak_or_strong","psychological",0.39,"O"
48,85311,"prior_manipulation","know when earthquakes are about to happen",1,"[50, 50, 53, 21, 22, 26, 52, 23, 51, 26, u'?']",10,"I just I just went by the information that I read all through this hit and then just picked the percentage on the graph that matched what I read",10,"prior","weak_or_half","psychological",0.11,"K"
48,85311,"prior_manipulation","know when earthquakes are about to happen",1,"[50, 50, 53, 21, 22, 26, 52, 23, 51, 26, u'?']",10,"I just I just went by the information that I read all through this hit and then just picked the percentage on the graph that matched what I read",10,"prior","weak_or_half","psychological",0.51,"L"
48,85311,"prior_manipulation","know when earthquakes are about to happen",1,"[50, 50, 53, 21, 22, 26, 52, 23, 51, 26, u'?']",10,"I just I just went by the information that I read all through this hit and then just picked the percentage on the graph that matched what I read",10,"prior","weak_or_half","psychological",0.47,"M"
48,85311,"prior_manipulation","know when earthquakes are about to happen",1,"[50, 50, 53, 21, 22, 26, 52, 23, 51, 26, u'?']",10,"I just I just went by the information that I read all through this hit and then just picked the percentage on the graph that matched what I read",10,"prior","weak_or_half","psychological",0.47,"N"
48,85311,"prior_manipulation","know when earthquakes are about to happen",1,"[50, 50, 53, 21, 22, 26, 52, 23, 51, 26, u'?']",10,"I just I just went by the information that I read all through this hit and then just picked the percentage on the graph that matched what I read",10,"prior","weak_or_half","psychological",0.72,"O"
49,181414,"prior_manipulation","know when earthquakes are about to happen",1,"[49, 51, 25, 51, 46, 29, 24, 23, 30, 53, u'?']",10,"It seems like all of them have at least some ability to sense earthquakes, and while a few have over a 50% chance, it seems to average around 30%.",10,"prior","weak_or_half","psychological",0.51,"K"
49,181414,"prior_manipulation","know when earthquakes are about to happen",1,"[49, 51, 25, 51, 46, 29, 24, 23, 30, 53, u'?']",10,"It seems like all of them have at least some ability to sense earthquakes, and while a few have over a 50% chance, it seems to average around 30%.",10,"prior","weak_or_half","psychological",0.31,"L"
49,181414,"prior_manipulation","know when earthquakes are about to happen",1,"[49, 51, 25, 51, 46, 29, 24, 23, 30, 53, u'?']",10,"It seems like all of them have at least some ability to sense earthquakes, and while a few have over a 50% chance, it seems to average around 30%.",10,"prior","weak_or_half","psychological",0.42,"M"
49,181414,"prior_manipulation","know when earthquakes are about to happen",1,"[49, 51, 25, 51, 46, 29, 24, 23, 30, 53, u'?']",10,"It seems like all of them have at least some ability to sense earthquakes, and while a few have over a 50% chance, it seems to average around 30%.",10,"prior","weak_or_half","psychological",0.23,"N"
49,181414,"prior_manipulation","know when earthquakes are about to happen",1,"[49, 51, 25, 51, 46, 29, 24, 23, 30, 53, u'?']",10,"It seems like all of them have at least some ability to sense earthquakes, and while a few have over a 50% chance, it seems to average around 30%.",10,"prior","weak_or_half","psychological",0.4,"O"
50,107254,"prior_manipulation","know when earthquakes are about to happen",1,"[0, 0, 76, 1, 0, 73, 78, 0, 73, 73, u'?']",10,"Merely trying to come up with some sort of pattern from the previous findings.",10,"prior","rare_strong","psychological",0,"K"
50,107254,"prior_manipulation","know when earthquakes are about to happen",1,"[0, 0, 76, 1, 0, 73, 78, 0, 73, 73, u'?']",10,"Merely trying to come up with some sort of pattern from the previous findings.",10,"prior","rare_strong","psychological",0.01,"L"
50,107254,"prior_manipulation","know when earthquakes are about to happen",1,"[0, 0, 76, 1, 0, 73, 78, 0, 73, 73, u'?']",10,"Merely trying to come up with some sort of pattern from the previous findings.",10,"prior","rare_strong","psychological",0.73,"M"
50,107254,"prior_manipulation","know when earthquakes are about to happen",1,"[0, 0, 76, 1, 0, 73, 78, 0, 73, 73, u'?']",10,"Merely trying to come up with some sort of pattern from the previous findings.",10,"prior","rare_strong","psychological",0,"N"
50,107254,"prior_manipulation","know when earthquakes are about to happen",1,"[0, 0, 76, 1, 0, 73, 78, 0, 73, 73, u'?']",10,"Merely trying to come up with some sort of pattern from the previous findings.",10,"prior","rare_strong","psychological",0.73,"O"
51,111204,"prior_manipulation","know when earthquakes are about to happen",1,"[99, 0, 2, 100, 3, 100, 2, 98, 100, 0, u'?']",10,"Based on the pattern of animals that had high percentages of knowing when an earthquake would happen.",10,"prior","rare_deterministic","psychological",0.24,"K"
51,111204,"prior_manipulation","know when earthquakes are about to happen",1,"[99, 0, 2, 100, 3, 100, 2, 98, 100, 0, u'?']",10,"Based on the pattern of animals that had high percentages of knowing when an earthquake would happen.",10,"prior","rare_deterministic","psychological",0.9,"L"
51,111204,"prior_manipulation","know when earthquakes are about to happen",1,"[99, 0, 2, 100, 3, 100, 2, 98, 100, 0, u'?']",10,"Based on the pattern of animals that had high percentages of knowing when an earthquake would happen.",10,"prior","rare_deterministic","psychological",0.8,"M"
51,111204,"prior_manipulation","know when earthquakes are about to happen",1,"[99, 0, 2, 100, 3, 100, 2, 98, 100, 0, u'?']",10,"Based on the pattern of animals that had high percentages of knowing when an earthquake would happen.",10,"prior","rare_deterministic","psychological",0.11,"N"
51,111204,"prior_manipulation","know when earthquakes are about to happen",1,"[99, 0, 2, 100, 3, 100, 2, 98, 100, 0, u'?']",10,"Based on the pattern of animals that had high percentages of knowing when an earthquake would happen.",10,"prior","rare_deterministic","psychological",0.26,"O"
52,83174,"prior_manipulation","know when earthquakes are about to happen",1,"[100, 1, 0, 1, 1, 97, 0, 100, 99, 100, u'?']",10,"Because I figured out that only certain types of animals would be able to predict earthquakes.",10,"prior","rare_deterministic","psychological",0.46,"K"
52,83174,"prior_manipulation","know when earthquakes are about to happen",1,"[100, 1, 0, 1, 1, 97, 0, 100, 99, 100, u'?']",10,"Because I figured out that only certain types of animals would be able to predict earthquakes.",10,"prior","rare_deterministic","psychological",0,"L"
52,83174,"prior_manipulation","know when earthquakes are about to happen",1,"[100, 1, 0, 1, 1, 97, 0, 100, 99, 100, u'?']",10,"Because I figured out that only certain types of animals would be able to predict earthquakes.",10,"prior","rare_deterministic","psychological",0.08,"M"
52,83174,"prior_manipulation","know when earthquakes are about to happen",1,"[100, 1, 0, 1, 1, 97, 0, 100, 99, 100, u'?']",10,"Because I figured out that only certain types of animals would be able to predict earthquakes.",10,"prior","rare_deterministic","psychological",0.48,"N"
52,83174,"prior_manipulation","know when earthquakes are about to happen",1,"[100, 1, 0, 1, 1, 97, 0, 100, 99, 100, u'?']",10,"Because I figured out that only certain types of animals would be able to predict earthquakes.",10,"prior","rare_deterministic","psychological",0.38,"O"
53,106676,"prior_manipulation","know when earthquakes are about to happen",1,"[51, 49, 48, 24, 23, 25, 27, 27, 52, 49, u'?']",10,"Following the previously displayed data, animals grouped in contiguous letter spaces had similar percentages",10,"prior","weak_or_half","psychological",0.49,"K"
53,106676,"prior_manipulation","know when earthquakes are about to happen",1,"[51, 49, 48, 24, 23, 25, 27, 27, 52, 49, u'?']",10,"Following the previously displayed data, animals grouped in contiguous letter spaces had similar percentages",10,"prior","weak_or_half","psychological",0.49,"L"
53,106676,"prior_manipulation","know when earthquakes are about to happen",1,"[51, 49, 48, 24, 23, 25, 27, 27, 52, 49, u'?']",10,"Following the previously displayed data, animals grouped in contiguous letter spaces had similar percentages",10,"prior","weak_or_half","psychological",0.23,"M"
53,106676,"prior_manipulation","know when earthquakes are about to happen",1,"[51, 49, 48, 24, 23, 25, 27, 27, 52, 49, u'?']",10,"Following the previously displayed data, animals grouped in contiguous letter spaces had similar percentages",10,"prior","weak_or_half","psychological",0.19,"N"
53,106676,"prior_manipulation","know when earthquakes are about to happen",1,"[51, 49, 48, 24, 23, 25, 27, 27, 52, 49, u'?']",10,"Following the previously displayed data, animals grouped in contiguous letter spaces had similar percentages",10,"prior","weak_or_half","psychological",0.16,"O"
54,139205,"prior_manipulation","know when earthquakes are about to happen",1,"[0, 52, 1, 50, 0, 0, 52, 53, 0, 53, u'?']",10,"i was trying to follow the pattern of the previous animals",10,"prior","rare_half","psychological",0.67,"K"
54,139205,"prior_manipulation","know when earthquakes are about to happen",1,"[0, 52, 1, 50, 0, 0, 52, 53, 0, 53, u'?']",10,"i was trying to follow the pattern of the previous animals",10,"prior","rare_half","psychological",0.03,"L"
54,139205,"prior_manipulation","know when earthquakes are about to happen",1,"[0, 52, 1, 50, 0, 0, 52, 53, 0, 53, u'?']",10,"i was trying to follow the pattern of the previous animals",10,"prior","rare_half","psychological",0.03,"M"
54,139205,"prior_manipulation","know when earthquakes are about to happen",1,"[0, 52, 1, 50, 0, 0, 52, 53, 0, 53, u'?']",10,"i was trying to follow the pattern of the previous animals",10,"prior","rare_half","psychological",0.39,"N"
54,139205,"prior_manipulation","know when earthquakes are about to happen",1,"[0, 52, 1, 50, 0, 0, 52, 53, 0, 53, u'?']",10,"i was trying to follow the pattern of the previous animals",10,"prior","rare_half","psychological",0.27,"O"
55,163887,"prior_manipulation","know when earthquakes are about to happen",1,"[3, 100, 0, 99, 0, 98, 100, 100, 0, 2, u'?']",10,"It seemed that there was a pattern between animals where every other one had alternating high and low percentages.",10,"prior","rare_deterministic","psychological",0.92,"K"
55,163887,"prior_manipulation","know when earthquakes are about to happen",1,"[3, 100, 0, 99, 0, 98, 100, 100, 0, 2, u'?']",10,"It seemed that there was a pattern between animals where every other one had alternating high and low percentages.",10,"prior","rare_deterministic","psychological",0.04,"L"
55,163887,"prior_manipulation","know when earthquakes are about to happen",1,"[3, 100, 0, 99, 0, 98, 100, 100, 0, 2, u'?']",10,"It seemed that there was a pattern between animals where every other one had alternating high and low percentages.",10,"prior","rare_deterministic","psychological",0.87,"M"
55,163887,"prior_manipulation","know when earthquakes are about to happen",1,"[3, 100, 0, 99, 0, 98, 100, 100, 0, 2, u'?']",10,"It seemed that there was a pattern between animals where every other one had alternating high and low percentages.",10,"prior","rare_deterministic","psychological",0,"N"
55,163887,"prior_manipulation","know when earthquakes are about to happen",1,"[3, 100, 0, 99, 0, 98, 100, 100, 0, 2, u'?']",10,"It seemed that there was a pattern between animals where every other one had alternating high and low percentages.",10,"prior","rare_deterministic","psychological",0.98,"O"
56,176505,"prior_manipulation","know when earthquakes are about to happen",1,"[49, 54, 51, 29, 26, 51, 23, 26, 22, 52, u'?']",10,"Seems to be roughly the average, so I took that one.",10,"prior","weak_or_half","psychological",0.37,"K"
56,176505,"prior_manipulation","know when earthquakes are about to happen",1,"[49, 54, 51, 29, 26, 51, 23, 26, 22, 52, u'?']",10,"Seems to be roughly the average, so I took that one.",10,"prior","weak_or_half","psychological",0.32,"L"
56,176505,"prior_manipulation","know when earthquakes are about to happen",1,"[49, 54, 51, 29, 26, 51, 23, 26, 22, 52, u'?']",10,"Seems to be roughly the average, so I took that one.",10,"prior","weak_or_half","psychological",0.39,"M"
56,176505,"prior_manipulation","know when earthquakes are about to happen",1,"[49, 54, 51, 29, 26, 51, 23, 26, 22, 52, u'?']",10,"Seems to be roughly the average, so I took that one.",10,"prior","weak_or_half","psychological",0.18,"N"
56,176505,"prior_manipulation","know when earthquakes are about to happen",1,"[49, 54, 51, 29, 26, 51, 23, 26, 22, 52, u'?']",10,"Seems to be roughly the average, so I took that one.",10,"prior","weak_or_half","psychological",0.4,"O"
57,133765,"prior_manipulation","know when earthquakes are about to happen",1,"[0, 1, 49, 0, 52, 51, 0, 52, 0, 46, u'?']",10,"It seemed like a pattern followed ",10,"prior","rare_half","psychological",0.07,"K"
57,133765,"prior_manipulation","know when earthquakes are about to happen",1,"[0, 1, 49, 0, 52, 51, 0, 52, 0, 46, u'?']",10,"It seemed like a pattern followed ",10,"prior","rare_half","psychological",0.14,"L"
57,133765,"prior_manipulation","know when earthquakes are about to happen",1,"[0, 1, 49, 0, 52, 51, 0, 52, 0, 46, u'?']",10,"It seemed like a pattern followed ",10,"prior","rare_half","psychological",0.6,"M"
57,133765,"prior_manipulation","know when earthquakes are about to happen",1,"[0, 1, 49, 0, 52, 51, 0, 52, 0, 46, u'?']",10,"It seemed like a pattern followed ",10,"prior","rare_half","psychological",0.24,"N"
57,133765,"prior_manipulation","know when earthquakes are about to happen",1,"[0, 1, 49, 0, 52, 51, 0, 52, 0, 46, u'?']",10,"It seemed like a pattern followed ",10,"prior","rare_half","psychological",0.2,"O"
58,221365,"prior_manipulation","know when earthquakes are about to happen",1,"[0, 0, 0, 23, 1, 0, 25, 21, 22, 30, u'?']",10,"The way it went, it seemed that the first three or so animals did not have any percentage that could detect earthquakes. And it seemed to increase after that. The average percentage was over twenty by the last few animals, so I figured the trend was strong that it would continue that way.",10,"prior","rare_weak","psychological",0.26,"K"
58,221365,"prior_manipulation","know when earthquakes are about to happen",1,"[0, 0, 0, 23, 1, 0, 25, 21, 22, 30, u'?']",10,"The way it went, it seemed that the first three or so animals did not have any percentage that could detect earthquakes. And it seemed to increase after that. The average percentage was over twenty by the last few animals, so I figured the trend was strong that it would continue that way.",10,"prior","rare_weak","psychological",0.21,"L"
58,221365,"prior_manipulation","know when earthquakes are about to happen",1,"[0, 0, 0, 23, 1, 0, 25, 21, 22, 30, u'?']",10,"The way it went, it seemed that the first three or so animals did not have any percentage that could detect earthquakes. And it seemed to increase after that. The average percentage was over twenty by the last few animals, so I figured the trend was strong that it would continue that way.",10,"prior","rare_weak","psychological",0.3,"M"
58,221365,"prior_manipulation","know when earthquakes are about to happen",1,"[0, 0, 0, 23, 1, 0, 25, 21, 22, 30, u'?']",10,"The way it went, it seemed that the first three or so animals did not have any percentage that could detect earthquakes. And it seemed to increase after that. The average percentage was over twenty by the last few animals, so I figured the trend was strong that it would continue that way.",10,"prior","rare_weak","psychological",0.04,"N"
58,221365,"prior_manipulation","know when earthquakes are about to happen",1,"[0, 0, 0, 23, 1, 0, 25, 21, 22, 30, u'?']",10,"The way it went, it seemed that the first three or so animals did not have any percentage that could detect earthquakes. And it seemed to increase after that. The average percentage was over twenty by the last few animals, so I figured the trend was strong that it would continue that way.",10,"prior","rare_weak","psychological",0.23,"O"
59,261580,"prior_manipulation","know when earthquakes are about to happen",1,"[77, 74, 100, 75, 77, 99, 100, 73, 98, 100, u'?']",10,"Use the same percentage as the day before. Estimate about the same in the 70 and 90 some 100",10,"prior","strong_or_deterministic","psychological",0.75,"K"
59,261580,"prior_manipulation","know when earthquakes are about to happen",1,"[77, 74, 100, 75, 77, 99, 100, 73, 98, 100, u'?']",10,"Use the same percentage as the day before. Estimate about the same in the 70 and 90 some 100",10,"prior","strong_or_deterministic","psychological",0.71,"L"
59,261580,"prior_manipulation","know when earthquakes are about to happen",1,"[77, 74, 100, 75, 77, 99, 100, 73, 98, 100, u'?']",10,"Use the same percentage as the day before. Estimate about the same in the 70 and 90 some 100",10,"prior","strong_or_deterministic","psychological",0.73,"M"
59,261580,"prior_manipulation","know when earthquakes are about to happen",1,"[77, 74, 100, 75, 77, 99, 100, 73, 98, 100, u'?']",10,"Use the same percentage as the day before. Estimate about the same in the 70 and 90 some 100",10,"prior","strong_or_deterministic","psychological",0.95,"N"
59,261580,"prior_manipulation","know when earthquakes are about to happen",1,"[77, 74, 100, 75, 77, 99, 100, 73, 98, 100, u'?']",10,"Use the same percentage as the day before. Estimate about the same in the 70 and 90 some 100",10,"prior","strong_or_deterministic","psychological",0.9,"O"
60,203959,"prior_manipulation","know when earthquakes are about to happen",1,"[100, 55, 20, 30, 80, 0, 95, 45, 5, 70, u'?']",10,"tried to follow the same type pattern as the others",10,"prior","uniform","psychological",0.32,"K"
60,203959,"prior_manipulation","know when earthquakes are about to happen",1,"[100, 55, 20, 30, 80, 0, 95, 45, 5, 70, u'?']",10,"tried to follow the same type pattern as the others",10,"prior","uniform","psychological",0.09,"L"
60,203959,"prior_manipulation","know when earthquakes are about to happen",1,"[100, 55, 20, 30, 80, 0, 95, 45, 5, 70, u'?']",10,"tried to follow the same type pattern as the others",10,"prior","uniform","psychological",0.71,"M"
60,203959,"prior_manipulation","know when earthquakes are about to happen",1,"[100, 55, 20, 30, 80, 0, 95, 45, 5, 70, u'?']",10,"tried to follow the same type pattern as the others",10,"prior","uniform","psychological",0.5,"N"
60,203959,"prior_manipulation","know when earthquakes are about to happen",1,"[100, 55, 20, 30, 80, 0, 95, 45, 5, 70, u'?']",10,"tried to follow the same type pattern as the others",10,"prior","uniform","psychological",0.14,"O"
61,279328,"prior_manipulation","know when earthquakes are about to happen",1,"[0, 54, 48, 1, 51, 0, 49, 48, 0, 0, u'?']",10,"I just thought that these sounded good. ",10,"prior","rare_half","psychological",0.51,"K"
61,279328,"prior_manipulation","know when earthquakes are about to happen",1,"[0, 54, 48, 1, 51, 0, 49, 48, 0, 0, u'?']",10,"I just thought that these sounded good. ",10,"prior","rare_half","psychological",0.07,"L"
61,279328,"prior_manipulation","know when earthquakes are about to happen",1,"[0, 54, 48, 1, 51, 0, 49, 48, 0, 0, u'?']",10,"I just thought that these sounded good. ",10,"prior","rare_half","psychological",0.19,"M"
61,279328,"prior_manipulation","know when earthquakes are about to happen",1,"[0, 54, 48, 1, 51, 0, 49, 48, 0, 0, u'?']",10,"I just thought that these sounded good. ",10,"prior","rare_half","psychological",0.04,"N"
61,279328,"prior_manipulation","know when earthquakes are about to happen",1,"[0, 54, 48, 1, 51, 0, 49, 48, 0, 0, u'?']",10,"I just thought that these sounded good. ",10,"prior","rare_half","psychological",0.47,"O"
62,158382,"prior_manipulation","know when earthquakes are about to happen",1,"[73, 77, 23, 27, 73, 22, 74, 26, 24, 75, u'?']",10,"It seemed that 50% of the animals knew at the higher percentage in the 70&quotechars as opposed to the ones in the 20&quotechars range.",10,"prior","weak_or_strong","psychological",0.7,"K"
62,158382,"prior_manipulation","know when earthquakes are about to happen",1,"[73, 77, 23, 27, 73, 22, 74, 26, 24, 75, u'?']",10,"It seemed that 50% of the animals knew at the higher percentage in the 70&quotechars as opposed to the ones in the 20&quotechars range.",10,"prior","weak_or_strong","psychological",0.64,"L"
62,158382,"prior_manipulation","know when earthquakes are about to happen",1,"[73, 77, 23, 27, 73, 22, 74, 26, 24, 75, u'?']",10,"It seemed that 50% of the animals knew at the higher percentage in the 70&quotechars as opposed to the ones in the 20&quotechars range.",10,"prior","weak_or_strong","psychological",0.3,"M"
62,158382,"prior_manipulation","know when earthquakes are about to happen",1,"[73, 77, 23, 27, 73, 22, 74, 26, 24, 75, u'?']",10,"It seemed that 50% of the animals knew at the higher percentage in the 70&quotechars as opposed to the ones in the 20&quotechars range.",10,"prior","weak_or_strong","psychological",0.38,"N"
62,158382,"prior_manipulation","know when earthquakes are about to happen",1,"[73, 77, 23, 27, 73, 22, 74, 26, 24, 75, u'?']",10,"It seemed that 50% of the animals knew at the higher percentage in the 70&quotechars as opposed to the ones in the 20&quotechars range.",10,"prior","weak_or_strong","psychological",0.77,"O"
63,150021,"prior_manipulation","know when earthquakes are about to happen",1,"[48, 100, 45, 45, 100, 48, 100, 99, 51, 100, u'?']",10,"About half of the previous animals knew 100% of the time and the other half knew about 50% of the time",10,"prior","half_or_deterministic","psychological",0.48,"K"
63,150021,"prior_manipulation","know when earthquakes are about to happen",1,"[48, 100, 45, 45, 100, 48, 100, 99, 51, 100, u'?']",10,"About half of the previous animals knew 100% of the time and the other half knew about 50% of the time",10,"prior","half_or_deterministic","psychological",1,"L"
63,150021,"prior_manipulation","know when earthquakes are about to happen",1,"[48, 100, 45, 45, 100, 48, 100, 99, 51, 100, u'?']",10,"About half of the previous animals knew 100% of the time and the other half knew about 50% of the time",10,"prior","half_or_deterministic","psychological",1,"M"
63,150021,"prior_manipulation","know when earthquakes are about to happen",1,"[48, 100, 45, 45, 100, 48, 100, 99, 51, 100, u'?']",10,"About half of the previous animals knew 100% of the time and the other half knew about 50% of the time",10,"prior","half_or_deterministic","psychological",0.48,"N"
63,150021,"prior_manipulation","know when earthquakes are about to happen",1,"[48, 100, 45, 45, 100, 48, 100, 99, 51, 100, u'?']",10,"About half of the previous animals knew 100% of the time and the other half knew about 50% of the time",10,"prior","half_or_deterministic","psychological",0.47,"O"
64,196660,"prior_manipulation","know when earthquakes are about to happen",1,"[24, 75, 74, 23, 74, 26, 76, 25, 75, 23, u'?']",10,"It seemed like it was every other animal and the last one was 24%",10,"prior","weak_or_strong","psychological",0.82,"K"
64,196660,"prior_manipulation","know when earthquakes are about to happen",1,"[24, 75, 74, 23, 74, 26, 76, 25, 75, 23, u'?']",10,"It seemed like it was every other animal and the last one was 24%",10,"prior","weak_or_strong","psychological",0.25,"L"
64,196660,"prior_manipulation","know when earthquakes are about to happen",1,"[24, 75, 74, 23, 74, 26, 76, 25, 75, 23, u'?']",10,"It seemed like it was every other animal and the last one was 24%",10,"prior","weak_or_strong","psychological",0.81,"M"
64,196660,"prior_manipulation","know when earthquakes are about to happen",1,"[24, 75, 74, 23, 74, 26, 76, 25, 75, 23, u'?']",10,"It seemed like it was every other animal and the last one was 24%",10,"prior","weak_or_strong","psychological",0.24,"N"
64,196660,"prior_manipulation","know when earthquakes are about to happen",1,"[24, 75, 74, 23, 74, 26, 76, 25, 75, 23, u'?']",10,"It seemed like it was every other animal and the last one was 24%",10,"prior","weak_or_strong","psychological",0.79,"O"
65,114338,"prior_manipulation","know when earthquakes are about to happen",1,"[70, 55, 100, 45, 30, 80, 0, 5, 20, 95, u'?']",10,"Mostly just going off of the averages from the previous page. Most animals had a large chance of knowing when earthquakes were going to happen, but had sudden dips in %.",10,"prior","uniform","psychological",0.84,"K"
65,114338,"prior_manipulation","know when earthquakes are about to happen",1,"[70, 55, 100, 45, 30, 80, 0, 5, 20, 95, u'?']",10,"Mostly just going off of the averages from the previous page. Most animals had a large chance of knowing when earthquakes were going to happen, but had sudden dips in %.",10,"prior","uniform","psychological",0.67,"L"
65,114338,"prior_manipulation","know when earthquakes are about to happen",1,"[70, 55, 100, 45, 30, 80, 0, 5, 20, 95, u'?']",10,"Mostly just going off of the averages from the previous page. Most animals had a large chance of knowing when earthquakes were going to happen, but had sudden dips in %.",10,"prior","uniform","psychological",0.47,"M"
65,114338,"prior_manipulation","know when earthquakes are about to happen",1,"[70, 55, 100, 45, 30, 80, 0, 5, 20, 95, u'?']",10,"Mostly just going off of the averages from the previous page. Most animals had a large chance of knowing when earthquakes were going to happen, but had sudden dips in %.",10,"prior","uniform","psychological",0.68,"N"
65,114338,"prior_manipulation","know when earthquakes are about to happen",1,"[70, 55, 100, 45, 30, 80, 0, 5, 20, 95, u'?']",10,"Mostly just going off of the averages from the previous page. Most animals had a large chance of knowing when earthquakes were going to happen, but had sudden dips in %.",10,"prior","uniform","psychological",0.26,"O"
66,184840,"prior_manipulation","know when earthquakes are about to happen",1,"[0, 26, 1, 28, 0, 22, 0, 0, 25, 25, u'?']",10,"Quite a few of them had 0% and the others were below 28% so most likely all of then will fall between 0% and 30%",10,"prior","rare_weak","psychological",0.15,"K"
66,184840,"prior_manipulation","know when earthquakes are about to happen",1,"[0, 26, 1, 28, 0, 22, 0, 0, 25, 25, u'?']",10,"Quite a few of them had 0% and the others were below 28% so most likely all of then will fall between 0% and 30%",10,"prior","rare_weak","psychological",0.04,"L"
66,184840,"prior_manipulation","know when earthquakes are about to happen",1,"[0, 26, 1, 28, 0, 22, 0, 0, 25, 25, u'?']",10,"Quite a few of them had 0% and the others were below 28% so most likely all of then will fall between 0% and 30%",10,"prior","rare_weak","psychological",0.12,"M"
66,184840,"prior_manipulation","know when earthquakes are about to happen",1,"[0, 26, 1, 28, 0, 22, 0, 0, 25, 25, u'?']",10,"Quite a few of them had 0% and the others were below 28% so most likely all of then will fall between 0% and 30%",10,"prior","rare_weak","psychological",0.01,"N"
66,184840,"prior_manipulation","know when earthquakes are about to happen",1,"[0, 26, 1, 28, 0, 22, 0, 0, 25, 25, u'?']",10,"Quite a few of them had 0% and the others were below 28% so most likely all of then will fall between 0% and 30%",10,"prior","rare_weak","psychological",0.19,"O"
67,74166,"prior_manipulation","know when earthquakes are about to happen",1,"[46, 26, 50, 29, 27, 21, 51, 24, 48, 53, u'?']",10,"I am basing this on the percentage of animals that we previously found that had this skill",10,"prior","weak_or_half","psychological",0.49,"K"
67,74166,"prior_manipulation","know when earthquakes are about to happen",1,"[46, 26, 50, 29, 27, 21, 51, 24, 48, 53, u'?']",10,"I am basing this on the percentage of animals that we previously found that had this skill",10,"prior","weak_or_half","psychological",0.22,"L"
67,74166,"prior_manipulation","know when earthquakes are about to happen",1,"[46, 26, 50, 29, 27, 21, 51, 24, 48, 53, u'?']",10,"I am basing this on the percentage of animals that we previously found that had this skill",10,"prior","weak_or_half","psychological",0.32,"M"
67,74166,"prior_manipulation","know when earthquakes are about to happen",1,"[46, 26, 50, 29, 27, 21, 51, 24, 48, 53, u'?']",10,"I am basing this on the percentage of animals that we previously found that had this skill",10,"prior","weak_or_half","psychological",0.45,"N"
67,74166,"prior_manipulation","know when earthquakes are about to happen",1,"[46, 26, 50, 29, 27, 21, 51, 24, 48, 53, u'?']",10,"I am basing this on the percentage of animals that we previously found that had this skill",10,"prior","weak_or_half","psychological",0.19,"O"
68,260799,"prior_manipulation","know when earthquakes are about to happen",1,"[46, 46, 52, 1, 49, 2, 0, 0, 51, 0, u'?']",10,"I based it on my memory/sensation of a pattern that had been seemingly established with the previous set of animals. Nothing beyond this, really.",10,"prior","rare_half","psychological",0,"K"
68,260799,"prior_manipulation","know when earthquakes are about to happen",1,"[46, 46, 52, 1, 49, 2, 0, 0, 51, 0, u'?']",10,"I based it on my memory/sensation of a pattern that had been seemingly established with the previous set of animals. Nothing beyond this, really.",10,"prior","rare_half","psychological",0.4,"L"
68,260799,"prior_manipulation","know when earthquakes are about to happen",1,"[46, 46, 52, 1, 49, 2, 0, 0, 51, 0, u'?']",10,"I based it on my memory/sensation of a pattern that had been seemingly established with the previous set of animals. Nothing beyond this, really.",10,"prior","rare_half","psychological",0.49,"M"
68,260799,"prior_manipulation","know when earthquakes are about to happen",1,"[46, 46, 52, 1, 49, 2, 0, 0, 51, 0, u'?']",10,"I based it on my memory/sensation of a pattern that had been seemingly established with the previous set of animals. Nothing beyond this, really.",10,"prior","rare_half","psychological",0.04,"N"
68,260799,"prior_manipulation","know when earthquakes are about to happen",1,"[46, 46, 52, 1, 49, 2, 0, 0, 51, 0, u'?']",10,"I based it on my memory/sensation of a pattern that had been seemingly established with the previous set of animals. Nothing beyond this, really.",10,"prior","rare_half","psychological",0.05,"O"
69,209641,"prior_manipulation","know when earthquakes are about to happen",1,"[73, 26, 23, 74, 76, 26, 77, 79, 22, 24, u'?']",10,"Just a guess based on the first study",10,"prior","weak_or_strong","psychological",0.74,"K"
69,209641,"prior_manipulation","know when earthquakes are about to happen",1,"[73, 26, 23, 74, 76, 26, 77, 79, 22, 24, u'?']",10,"Just a guess based on the first study",10,"prior","weak_or_strong","psychological",0.16,"L"
69,209641,"prior_manipulation","know when earthquakes are about to happen",1,"[73, 26, 23, 74, 76, 26, 77, 79, 22, 24, u'?']",10,"Just a guess based on the first study",10,"prior","weak_or_strong","psychological",0.18,"M"
69,209641,"prior_manipulation","know when earthquakes are about to happen",1,"[73, 26, 23, 74, 76, 26, 77, 79, 22, 24, u'?']",10,"Just a guess based on the first study",10,"prior","weak_or_strong","psychological",0.79,"N"
