workerid,rt,trial_type,stim_type,trial_num,response0,response1,stim_property,stim_category
0,9655,twostep_elicitation,color,0,0.79,0.65,silver legs,moxes
0,5552,twostep_elicitation,color,1,0.24,0.13,yellow fur,crullets
0,4147,twostep_elicitation,vague,2,0.74,0.69,big claws,mooks
0,10136,twostep_elicitation,disease,3,0.02,0.05,broken legs,elleps
0,7911,twostep_elicitation,part,4,1,1,fur,grinks
0,9086,twostep_elicitation,disease,5,0,0.07,torn tails,zorbs
0,7637,twostep_elicitation,vague,6,0.78,0.8,long teeth,frams
0,8536,twostep_elicitation,accidental,7,0,0.06,wet fur,daiths
0,4643,twostep_elicitation,part,8,0.75,0.68,skin,lorches
0,13963,twostep_elicitation,accidental,9,0.75,0.67,swollen ears,reesles
0,3873,twostep_elicitation,accidental,10,0.86,0.51,dusty skin,trufts
0,6526,twostep_elicitation,vague,11,0.8,0.22,rough skin,plovs
0,3578,twostep_elicitation,vague,12,0.79,0.7,curly fur,cheebas
0,4759,twostep_elicitation,accidental,13,0.26,0.17,itchy tails,sapers
0,21333,twostep_elicitation,disease,14,0.77,0.55,rotten teeth,blins
0,4485,twostep_elicitation,color,15,0.89,0.61,violet skin,pangolins
0,3208,twostep_elicitation,color,16,0.96,0.57,orange ears,dorbs
0,4622,twostep_elicitation,color,17,0.94,0.81,blue claws,feps
0,2716,twostep_elicitation,vague,18,0.45,0.57,long legs,kweps
0,2160,twostep_elicitation,part,19,0.81,0.53,feathers,thups
0,2648,twostep_elicitation,accidental,20,0.84,0.64,sore legs,krivels
0,4970,twostep_elicitation,part,21,0.89,0.27,legs,ackles
0,3222,twostep_elicitation,disease,22,0.18,0.02,torn feathers,morseths
0,4668,twostep_elicitation,color,23,0.9,0.69,pink teeth,ollers
0,6924,twostep_elicitation,part,24,1,0.97,tails,javs
0,5605,twostep_elicitation,disease,25,0.23,0.12,fungus-covered fur,kazzes
0,4205,twostep_elicitation,accidental,26,0.2,0.05,cracked claws,glippets
0,5410,twostep_elicitation,vague,27,0.97,0.94,smooth feathers,taifels
0,4071,twostep_elicitation,disease,28,0.13,0.07,infected ears,zoovs
0,3608,twostep_elicitation,part,29,0.97,1,ears,stups
1,19090,twostep_elicitation,vague,0,0.49,0.5,long tails,stups
1,12993,twostep_elicitation,part,1,1,1,skin,trufts
1,17009,twostep_elicitation,color,2,0.09,1,blue claws,daiths
1,11734,twostep_elicitation,color,3,0.48,0.8,yellow fur,mooks
1,19023,twostep_elicitation,part,4,0.7,0.99,feathers,frams
1,17944,twostep_elicitation,color,5,0.21,1,silver legs,morseths
1,9236,twostep_elicitation,disease,6,0.02,0,rotten teeth,dorbs
1,8100,twostep_elicitation,disease,7,0.03,0.01,fungus-covered fur,kazzes
1,11149,twostep_elicitation,disease,8,0.5,0.7,worn-out claws,zorbs
1,8054,twostep_elicitation,disease,9,0.02,0,burned skin,thups
1,16584,twostep_elicitation,accidental,10,0.17,1,itchy tails,reesles
1,7560,twostep_elicitation,vague,11,0.91,1,rough skin,blins
1,8077,twostep_elicitation,disease,12,0.53,0.72,torn feathers,luzaks
1,12846,twostep_elicitation,accidental,13,0.21,0.9,wet fur,crullets
1,11026,twostep_elicitation,accidental,14,0.02,0,swollen ears,zoovs
1,7177,twostep_elicitation,disease,15,0,0,broken legs,pangolins
1,6627,twostep_elicitation,vague,16,0.92,1,smooth feathers,krivels
1,15716,twostep_elicitation,accidental,17,0.13,1,dusty skin,lorches
1,9147,twostep_elicitation,part,18,0.52,1,claws,ackles
1,6142,twostep_elicitation,color,19,0.73,0.9,orange tails,elleps
1,6075,twostep_elicitation,vague,20,0.91,1,long legs,taifels
1,5017,twostep_elicitation,vague,21,0.53,1,big claws,kweps
1,9202,twostep_elicitation,accidental,22,0.38,0.8,cracked claws,sapers
1,6728,twostep_elicitation,part,23,0.99,1,ears,ollers
1,6029,twostep_elicitation,vague,24,0.98,1,curly fur,wugs
1,9979,twostep_elicitation,color,25,0.5,0.8,purple feathers,grinks
1,5479,twostep_elicitation,part,26,1,1,legs,plovs
1,9732,twostep_elicitation,color,27,0,1,violet skin,moxes
1,5748,twostep_elicitation,part,28,1,1,tails,cheebas
1,9720,twostep_elicitation,accidental,29,0.24,1,muddy feathers,glippets
2,29256,twostep_elicitation,color,0,0.36,0.26,pink teeth,reesles
2,20320,twostep_elicitation,color,1,0.32,0.31,orange ears,morseths
2,11741,twostep_elicitation,accidental,2,0.42,0.41,dusty skin,daiths
2,11364,twostep_elicitation,disease,3,0.19,0.09,broken legs,feps
2,18511,twostep_elicitation,accidental,4,0.49,0.28,muddy feathers,zorbs
2,10420,twostep_elicitation,vague,5,0.57,0.42,rough skin,wugs
2,7708,twostep_elicitation,accidental,6,0.25,0.06,sore teeth,stups
2,8855,twostep_elicitation,part,7,0.62,0.62,claws,frams
2,7560,twostep_elicitation,disease,8,0.43,0.22,worn-out claws,sapers
2,7598,twostep_elicitation,accidental,9,0.34,0.23,wet fur,grinks
2,11382,twostep_elicitation,accidental,10,0.31,0.13,swollen ears,krivels
2,6704,twostep_elicitation,vague,11,0.52,0.56,big claws,trufts
2,6188,twostep_elicitation,disease,12,0.37,0.24,torn feathers,thups
2,5808,twostep_elicitation,vague,13,0.61,0.62,long teeth,mooks
2,6462,twostep_elicitation,vague,14,0.56,0.55,curly fur,javs
2,6864,twostep_elicitation,disease,15,0.16,0.1,infected ears,lorches
2,10070,twostep_elicitation,color,16,0.33,0.34,violet skin,elleps
2,6523,twostep_elicitation,part,17,0.8,0.81,teeth,ackles
2,5533,twostep_elicitation,part,18,0.69,0.7,fur,crullets
2,7008,twostep_elicitation,color,19,0.17,0.12,blue claws,kazzes
2,7285,twostep_elicitation,vague,20,0.65,0.6,long tails,zoovs
2,8231,twostep_elicitation,disease,21,0.4,0.3,rotten teeth,plovs
2,6345,twostep_elicitation,part,22,0.78,0.79,ears,taifels
2,8592,twostep_elicitation,disease,23,0.12,0.1,torn tails,pangolins
2,5848,twostep_elicitation,color,24,0.33,0.27,yellow fur,blins
2,7579,twostep_elicitation,part,25,0.75,0.72,tails,ollers
2,7784,twostep_elicitation,vague,26,0.55,0.55,small ears,moxes
2,7327,twostep_elicitation,color,27,0.42,0.32,purple feathers,cheebas
2,5781,twostep_elicitation,part,28,0.63,0.64,feathers,dorbs
2,6850,twostep_elicitation,accidental,29,0.16,0.1,cracked claws,luzaks
3,7445,twostep_elicitation,part,0,0.62,0.46,ears,dorbs
3,7484,twostep_elicitation,accidental,1,0.64,0.34,sore legs,morseths
3,2353,twostep_elicitation,color,2,0.62,0.48,violet skin,lorches
3,4404,twostep_elicitation,vague,3,0.34,0.75,rough skin,kazzes
3,54899,twostep_elicitation,part,4,0.85,0.49,teeth,zoovs
3,2909,twostep_elicitation,disease,5,0.8,0.54,torn tails,pangolins
3,4299,twostep_elicitation,vague,6,0.74,0.52,small ears,blins
3,6776,twostep_elicitation,vague,7,0.49,0.49,long legs,zorbs
3,3484,twostep_elicitation,accidental,8,0.49,0.47,swollen ears,glippets
3,2828,twostep_elicitation,color,9,0.75,0.47,silver legs,elleps
3,4753,twostep_elicitation,disease,10,0.62,0.5,worn-out claws,daiths
3,3264,twostep_elicitation,disease,11,0.83,0.61,fungus-covered fur,ollers
3,3017,twostep_elicitation,part,12,0.61,0.4,legs,crullets
3,5930,twostep_elicitation,accidental,13,0.52,0.43,sore teeth,javs
3,2552,twostep_elicitation,accidental,14,0.51,0.49,dusty skin,plovs
3,5089,twostep_elicitation,color,15,0.72,0.71,yellow fur,stups
3,4441,twostep_elicitation,color,16,0.69,0.55,blue claws,wugs
3,4601,twostep_elicitation,part,17,0.71,0.43,feathers,krivels
3,2533,twostep_elicitation,disease,18,0.59,0.54,burned skin,frams
3,9663,twostep_elicitation,disease,19,0.49,0.62,torn feathers,grinks
3,3568,twostep_elicitation,vague,20,0.65,0.41,long teeth,sapers
3,2439,twostep_elicitation,part,21,0.72,0.38,fur,ackles
3,3315,twostep_elicitation,accidental,22,0.77,0.48,wet fur,mooks
3,2452,twostep_elicitation,vague,23,0.59,0.52,long tails,cheebas
3,2774,twostep_elicitation,color,24,0.51,0.44,orange tails,moxes
3,4676,twostep_elicitation,disease,25,0.37,0.19,broken legs,luzaks
3,2712,twostep_elicitation,vague,26,0.79,0.63,big claws,reesles
3,2301,twostep_elicitation,part,27,0.6,0.49,claws,thups
3,4231,twostep_elicitation,color,28,0.67,0.31,orange ears,kweps
3,3313,twostep_elicitation,accidental,29,0.35,0.23,itchy tails,taifels
4,5481,twostep_elicitation,disease,0,0.58,0.42,rotten teeth,pangolins
4,1825,twostep_elicitation,vague,1,0.69,0.7,curly fur,dorbs
4,3132,twostep_elicitation,accidental,2,0.54,0.71,swollen ears,stups
4,1572,twostep_elicitation,part,3,0.8,0.75,skin,kweps
4,31175,twostep_elicitation,part,4,0.5,0.73,ears,taifels
4,1835,twostep_elicitation,part,5,0.37,0.29,teeth,thups
4,2340,twostep_elicitation,vague,6,0.73,0.82,long legs,moxes
4,1619,twostep_elicitation,accidental,7,0.68,0.68,sore teeth,grinks
4,1967,twostep_elicitation,part,8,0.41,0.58,claws,elleps
4,1426,twostep_elicitation,color,9,0.75,0.54,silver legs,crullets
4,1512,twostep_elicitation,accidental,10,0.6,0.61,itchy tails,zorbs
4,2698,twostep_elicitation,disease,11,0.1,0.15,torn feathers,wugs
4,36371,twostep_elicitation,color,12,0.36,0.58,pink teeth,reesles
4,2100,twostep_elicitation,vague,13,0.61,0.45,smooth feathers,morseths
4,1620,twostep_elicitation,color,14,0.48,0.5,violet skin,mooks
4,3288,twostep_elicitation,vague,15,0.21,0.23,big claws,javs
4,2099,twostep_elicitation,accidental,16,0.14,0.14,cracked claws,zoovs
4,1750,twostep_elicitation,color,17,0.57,0.38,yellow fur,krivels
4,86753,twostep_elicitation,color,18,0.43,0.56,blue claws,luzaks
4,2736,twostep_elicitation,disease,19,0.63,0.51,infected ears,ollers
4,1595,twostep_elicitation,part,20,0.32,0.47,fur,kazzes
4,1716,twostep_elicitation,accidental,21,0.54,0.54,wet fur,feps
4,1883,twostep_elicitation,disease,22,0.72,0.59,broken legs,blins
4,1981,twostep_elicitation,accidental,23,0.43,0.51,muddy feathers,trufts
4,1499,twostep_elicitation,part,24,0.59,0.59,feathers,ackles
4,1693,twostep_elicitation,vague,25,0.29,0.44,long tails,sapers
4,1428,twostep_elicitation,vague,26,0.54,0.44,rough skin,frams
4,1475,twostep_elicitation,color,27,0.43,0.5,orange tails,lorches
4,1762,twostep_elicitation,disease,28,0.34,0.82,worn-out claws,plovs
4,1812,twostep_elicitation,disease,29,0.75,0.81,burned skin,glippets
5,26163,twostep_elicitation,color,0,0.07,0,silver legs,javs
5,23839,twostep_elicitation,vague,1,0.28,0.99,curly fur,dorbs
5,99976,twostep_elicitation,color,2,0.09,0.5,violet skin,zorbs
5,19531,twostep_elicitation,accidental,3,0.05,0.1,swollen ears,crullets
5,21031,twostep_elicitation,accidental,4,0.27,0.03,muddy feathers,taifels
5,13700,twostep_elicitation,disease,5,0.81,0.2,rotten teeth,thups
5,51758,twostep_elicitation,color,6,0.26,0.9,yellow fur,plovs
5,20567,twostep_elicitation,part,7,0.69,1,teeth,wugs
5,13242,twostep_elicitation,accidental,8,0.16,0.04,dusty skin,zoovs
5,9702,twostep_elicitation,part,9,0.64,1,tails,feps
5,11360,twostep_elicitation,vague,10,0.89,1,smooth feathers,kweps
5,15975,twostep_elicitation,disease,11,0.79,0.03,infected ears,mooks
5,23423,twostep_elicitation,color,12,0.63,1,purple feathers,blins
5,28080,twostep_elicitation,disease,13,0.73,0.02,torn feathers,grinks
5,16416,twostep_elicitation,vague,14,0.22,1,long teeth,luzaks
5,14288,twostep_elicitation,accidental,15,0.84,0.3,wet fur,glippets
5,17096,twostep_elicitation,color,16,0.16,1,orange tails,stups
5,11919,twostep_elicitation,disease,17,0.05,0.01,burned skin,trufts
5,40343,twostep_elicitation,part,18,0.94,1,skin,morseths
5,6873,twostep_elicitation,accidental,19,0.07,0.02,cracked claws,pangolins
5,9494,twostep_elicitation,part,20,1,1,ears,sapers
5,10545,twostep_elicitation,disease,21,0.01,0.01,torn tails,ackles
5,18845,twostep_elicitation,vague,22,0.54,1,big claws,ollers
5,13425,twostep_elicitation,accidental,23,0.08,0.06,sore teeth,reesles
5,8576,twostep_elicitation,part,24,0.79,1,fur,cheebas
5,7126,twostep_elicitation,disease,25,0,0.02,broken legs,daiths
5,10386,twostep_elicitation,vague,26,0.62,1,long legs,elleps
5,10030,twostep_elicitation,part,27,0.83,1,feathers,moxes
5,14734,twostep_elicitation,color,28,0.23,0.5,blue claws,lorches
5,12250,twostep_elicitation,vague,29,0.63,1,rough skin,krivels
6,16726,twostep_elicitation,part,0,1,1,skin,dorbs
6,12869,twostep_elicitation,part,1,0.65,1,legs,plovs
6,15544,twostep_elicitation,color,2,0.04,0.95,blue claws,stups
6,11352,twostep_elicitation,color,3,0.04,0.9,pink teeth,javs
6,28495,twostep_elicitation,disease,4,0.96,0.01,broken legs,glippets
6,11341,twostep_elicitation,color,5,0.04,0.95,orange tails,cheebas
6,13720,twostep_elicitation,vague,6,0.21,1,big claws,kazzes
6,14489,twostep_elicitation,vague,7,0.18,1,curly fur,blins
6,15294,twostep_elicitation,disease,8,0.04,0.03,torn feathers,feps
6,9180,twostep_elicitation,part,9,0.93,1,ears,crullets
6,12872,twostep_elicitation,disease,10,0.04,0.03,fungus-covered fur,luzaks
6,10072,twostep_elicitation,vague,11,0.19,1,long legs,moxes
6,11848,twostep_elicitation,disease,12,0.06,0.08,rotten teeth,trufts
6,14888,twostep_elicitation,accidental,13,0.11,0.09,sore teeth,grinks
6,9596,twostep_elicitation,vague,14,0.16,1,rough skin,lorches
6,9520,twostep_elicitation,accidental,15,0.09,0.05,itchy tails,thups
6,10096,twostep_elicitation,color,16,0.08,1,violet skin,krivels
6,6855,twostep_elicitation,part,17,0.14,1,claws,zorbs
6,33292,twostep_elicitation,color,18,0.04,1,yellow fur,mooks
6,14552,twostep_elicitation,accidental,19,0.06,0.04,muddy feathers,reesles
6,9072,twostep_elicitation,part,20,0.95,1,teeth,ackles
6,16280,twostep_elicitation,part,21,0.25,1,tails,zoovs
6,18845,twostep_elicitation,disease,22,0.08,0.03,torn tails,frams
6,8416,twostep_elicitation,disease,23,0.1,0.04,worn-out claws,daiths
6,9704,twostep_elicitation,accidental,24,0.08,0.02,swollen ears,taifels
6,10696,twostep_elicitation,vague,25,0.1,1,long teeth,morseths
6,10336,twostep_elicitation,vague,26,0.35,1,small ears,wugs
6,10120,twostep_elicitation,accidental,27,0.1,0.04,sore legs,sapers
6,13100,twostep_elicitation,color,28,0.05,0.02,purple feathers,kweps
6,11639,twostep_elicitation,accidental,29,0.45,0.56,dusty skin,pangolins
7,31904,twostep_elicitation,disease,0,0.82,0.3,worn-out claws,moxes
7,24743,twostep_elicitation,disease,1,0.31,0.2,broken legs,zorbs
7,22375,twostep_elicitation,color,2,0.49,0.3,silver legs,grinks
7,15825,twostep_elicitation,vague,3,0.51,0.21,smooth feathers,feps
7,16423,twostep_elicitation,part,4,0.71,1,claws,crullets
7,23824,twostep_elicitation,vague,5,0.59,0.77,long tails,glippets
7,9415,twostep_elicitation,color,6,0.51,0.68,orange ears,thups
7,6921,twostep_elicitation,color,7,0.49,0.8,orange tails,kazzes
7,11880,twostep_elicitation,color,8,0.52,0.5,purple feathers,krivels
7,9103,twostep_elicitation,accidental,9,0.25,0.2,sore teeth,plovs
7,9231,twostep_elicitation,part,10,1,1,ears,trufts
7,5273,twostep_elicitation,part,11,1,1,teeth,reesles
7,4855,twostep_elicitation,disease,12,0.25,0.36,torn feathers,stups
7,43352,twostep_elicitation,accidental,13,1,0.34,swollen ears,cheebas
7,4927,twostep_elicitation,accidental,14,0.89,0.29,dusty skin,frams
7,11272,twostep_elicitation,vague,15,1,0.37,rough skin,elleps
7,10456,twostep_elicitation,part,16,0.83,0.84,fur,sapers
7,5568,twostep_elicitation,accidental,17,0.42,0.2,sore legs,luzaks
7,6591,twostep_elicitation,part,18,0.92,0.9,tails,pangolins
7,3640,twostep_elicitation,vague,19,0.76,0.48,curly fur,dorbs
7,7952,twostep_elicitation,disease,20,0.77,0.19,burned skin,lorches
7,5664,twostep_elicitation,part,21,0.95,0.92,feathers,kweps
7,5552,twostep_elicitation,accidental,22,0.89,0.18,wet fur,wugs
7,4352,twostep_elicitation,disease,23,0.66,0.18,torn tails,morseths
7,6546,twostep_elicitation,color,24,0.63,0.2,pink teeth,mooks
7,4397,twostep_elicitation,disease,25,0.46,0.19,rotten teeth,zoovs
7,3624,twostep_elicitation,accidental,26,0.52,0.26,itchy tails,ollers
7,5224,twostep_elicitation,color,27,0.49,0.86,blue claws,taifels
7,3663,twostep_elicitation,vague,28,0.85,0.9,big claws,javs
7,4833,twostep_elicitation,vague,29,0.83,0.51,long legs,daiths
8,13780,twostep_elicitation,part,0,1,0.87,skin,krivels
8,7457,twostep_elicitation,part,1,0.99,1,teeth,lorches
8,6837,twostep_elicitation,vague,2,0.98,0.52,smooth feathers,luzaks
8,8394,twostep_elicitation,color,3,1,0.74,silver legs,crullets
8,5326,twostep_elicitation,color,4,0.98,0.99,violet skin,trufts
8,5387,twostep_elicitation,vague,5,0.98,0.5,long tails,ackles
8,8761,twostep_elicitation,accidental,6,0.99,0.5,cracked claws,kazzes
8,5808,twostep_elicitation,color,7,0.98,0.49,purple feathers,frams
8,6308,twostep_elicitation,disease,8,0.99,0.49,rotten teeth,glippets
8,3610,twostep_elicitation,part,9,0.96,0.98,fur,wugs
8,3957,twostep_elicitation,accidental,10,0.97,0.51,muddy feathers,javs
8,3366,twostep_elicitation,vague,11,0.99,0.5,small ears,elleps
8,3710,twostep_elicitation,color,12,0.99,0.5,blue claws,zoovs
8,5256,twostep_elicitation,disease,13,1,0.33,burned skin,moxes
8,4319,twostep_elicitation,disease,14,1,0.4,worn-out claws,cheebas
8,3611,twostep_elicitation,color,15,0.99,0.46,yellow fur,zorbs
8,3094,twostep_elicitation,vague,16,0.98,0.79,long teeth,pangolins
8,4793,twostep_elicitation,disease,17,0.98,0.35,infected ears,mooks
8,3509,twostep_elicitation,accidental,18,0.96,0.38,itchy tails,thups
8,3971,twostep_elicitation,part,19,0.98,1,feathers,dorbs
8,3307,twostep_elicitation,accidental,20,0.98,0.36,dusty skin,ollers
8,2812,twostep_elicitation,color,21,0.99,0.47,orange tails,plovs
8,3263,twostep_elicitation,vague,22,0.99,0.49,rough skin,daiths
8,2901,twostep_elicitation,disease,23,0.99,0.37,torn tails,blins
8,3094,twostep_elicitation,part,24,1,0.37,ears,kweps
8,3532,twostep_elicitation,accidental,25,0.98,0.25,swollen ears,feps
8,3433,twostep_elicitation,part,26,0.99,0.98,legs,sapers
8,2900,twostep_elicitation,accidental,27,0.99,0.3,sore legs,reesles
8,3858,twostep_elicitation,disease,28,0.97,0.41,fungus-covered fur,morseths
8,3848,twostep_elicitation,vague,29,1,0.27,long legs,stups
9,19049,twostep_elicitation,accidental,0,0.17,0.5,muddy feathers,trufts
9,8755,twostep_elicitation,disease,1,0,0.73,torn feathers,morseths
9,15259,twostep_elicitation,part,2,1,1,legs,luzaks
9,11536,twostep_elicitation,vague,3,0.08,0.84,rough skin,moxes
9,9291,twostep_elicitation,accidental,4,0.02,0.27,itchy tails,ackles
9,7037,twostep_elicitation,disease,5,0.03,0.05,broken legs,plovs
9,9705,twostep_elicitation,color,6,0.34,0.93,orange ears,pangolins
9,8145,twostep_elicitation,accidental,7,0.03,0.08,sore teeth,dorbs
9,8899,twostep_elicitation,accidental,8,0.12,0.13,cracked claws,crullets
9,7965,twostep_elicitation,vague,9,0.29,1,long legs,thups
9,6566,twostep_elicitation,vague,10,0.43,0.99,small ears,grinks
9,23476,twostep_elicitation,accidental,11,0.15,0.23,dusty skin,kazzes
9,5755,twostep_elicitation,part,12,0.47,0.98,feathers,feps
9,6249,twostep_elicitation,disease,13,0.04,0.08,fungus-covered fur,glippets
9,3659,twostep_elicitation,disease,14,0.03,0.09,torn tails,lorches
9,5274,twostep_elicitation,vague,15,0.48,0.99,long tails,kweps
9,3465,twostep_elicitation,disease,16,0.02,0.07,burned skin,krivels
9,5645,twostep_elicitation,disease,17,0.12,0.61,worn-out claws,frams
9,7081,twostep_elicitation,part,18,1,1,fur,zorbs
9,5094,twostep_elicitation,part,19,0.98,1,skin,ollers
9,3469,twostep_elicitation,color,20,0.18,0.94,blue claws,stups
9,3387,twostep_elicitation,color,21,0.55,0.98,orange tails,wugs
9,4052,twostep_elicitation,color,22,0.46,0.98,violet skin,zoovs
9,4090,twostep_elicitation,accidental,23,0.1,0.39,sore legs,reesles
9,3394,twostep_elicitation,color,24,0.35,0.97,purple feathers,daiths
9,6182,twostep_elicitation,part,25,1,1,claws,sapers
9,5783,twostep_elicitation,vague,26,0.95,1,big claws,javs
9,4473,twostep_elicitation,vague,27,0.46,1,curly fur,taifels
9,3901,twostep_elicitation,color,28,0.55,1,silver legs,mooks
9,4295,twostep_elicitation,part,29,1,1,ears,elleps
10,23269,twostep_elicitation,color,0,0.03,0.98,purple feathers,blins
10,17992,twostep_elicitation,disease,1,0.23,0.2,rotten teeth,wugs
10,9083,twostep_elicitation,accidental,2,0.21,0.05,cracked claws,kazzes
10,10267,twostep_elicitation,part,3,0.3,0.98,feathers,moxes
10,13002,twostep_elicitation,color,4,0.08,0.99,silver legs,trufts
10,15069,twostep_elicitation,disease,5,0.02,0.98,fungus-covered fur,grinks
10,11397,twostep_elicitation,vague,6,0.07,0.99,curly fur,luzaks
10,11912,twostep_elicitation,part,7,0.78,1,ears,zoovs
10,9721,twostep_elicitation,color,8,0.24,1,yellow fur,dorbs
10,12990,twostep_elicitation,disease,9,0.06,0.07,worn-out claws,krivels
10,11294,twostep_elicitation,accidental,10,0.03,0.04,itchy tails,javs
10,10121,twostep_elicitation,part,11,0.98,0.98,skin,thups
10,7183,twostep_elicitation,disease,12,0.03,0.03,infected ears,frams
10,8477,twostep_elicitation,part,13,0.83,0.99,legs,reesles
10,8348,twostep_elicitation,disease,14,0.04,0.03,torn feathers,sapers
10,7468,twostep_elicitation,vague,15,0.19,0.98,long tails,pangolins
10,5208,twostep_elicitation,accidental,16,0.02,0.02,swollen ears,plovs
10,17977,twostep_elicitation,color,17,0.02,0.99,blue claws,glippets
10,8508,twostep_elicitation,part,18,0.75,0.98,fur,stups
10,5527,twostep_elicitation,accidental,19,0.03,0.05,dusty skin,zorbs
10,7680,twostep_elicitation,part,20,0.45,1,tails,lorches
10,8449,twostep_elicitation,vague,21,0.21,0.99,long teeth,crullets
10,5575,twostep_elicitation,color,22,0.05,0.97,violet skin,kweps
10,5307,twostep_elicitation,accidental,23,0.01,0.03,muddy feathers,feps
10,5878,twostep_elicitation,disease,24,0.01,0.03,burned skin,taifels
10,11107,twostep_elicitation,accidental,25,0.09,0.17,sore legs,mooks
10,5800,twostep_elicitation,vague,26,0.37,0.97,rough skin,cheebas
10,6067,twostep_elicitation,vague,27,0.39,0.99,long legs,daiths
10,5590,twostep_elicitation,vague,28,0.37,0.98,small ears,ackles
10,5763,twostep_elicitation,color,29,0.02,0.99,orange ears,elleps
11,20956,twostep_elicitation,color,0,1,0.1,orange tails,elleps
11,10679,twostep_elicitation,color,1,1,0.1,purple feathers,trufts
11,6938,twostep_elicitation,color,2,1,0.1,orange ears,kazzes
11,15641,twostep_elicitation,vague,3,1,0.9,small ears,taifels
11,13366,twostep_elicitation,part,4,1,0.95,fur,kweps
11,16431,twostep_elicitation,color,5,0,0.9,silver legs,luzaks
11,8848,twostep_elicitation,accidental,6,0,0.05,itchy tails,dorbs
11,15480,twostep_elicitation,vague,7,1,0.75,long teeth,glippets
11,10246,twostep_elicitation,color,8,0,0.2,pink teeth,pangolins
11,7363,twostep_elicitation,part,9,1,0.99,skin,grinks
11,10154,twostep_elicitation,disease,10,0,0.2,fungus-covered fur,cheebas
11,11979,twostep_elicitation,accidental,11,0,0.1,dusty skin,wugs
11,7756,twostep_elicitation,part,12,1,0.97,tails,feps
11,8908,twostep_elicitation,accidental,13,0,0.1,cracked claws,javs
11,7599,twostep_elicitation,accidental,14,0,0.1,muddy feathers,zorbs
11,5358,twostep_elicitation,accidental,15,0,0.05,sore legs,daiths
11,8237,twostep_elicitation,part,16,1,0.99,legs,frams
11,8850,twostep_elicitation,disease,17,0,0.01,torn tails,plovs
11,7661,twostep_elicitation,vague,18,1,0.85,long legs,morseths
11,5539,twostep_elicitation,disease,19,0,0.01,burned skin,zoovs
11,9035,twostep_elicitation,vague,20,1,0.95,long tails,crullets
11,5843,twostep_elicitation,disease,21,0,0.01,broken legs,ollers
11,6094,twostep_elicitation,disease,22,0,0.03,rotten teeth,lorches
11,10862,twostep_elicitation,color,23,1,0.95,violet skin,mooks
11,8321,twostep_elicitation,vague,24,1,0.95,rough skin,stups
11,6598,twostep_elicitation,disease,25,0,0.05,worn-out claws,krivels
11,8257,twostep_elicitation,part,26,1,0.98,feathers,moxes
11,4688,twostep_elicitation,accidental,27,0,0.03,swollen ears,ackles
11,6104,twostep_elicitation,part,28,1,0.97,teeth,thups
11,8587,twostep_elicitation,vague,29,0,0.95,smooth feathers,sapers
12,21727,twostep_elicitation,color,0,0.66,0.8,purple feathers,kweps
12,11972,twostep_elicitation,vague,1,0.52,0.98,smooth feathers,ollers
12,13071,twostep_elicitation,disease,2,0.44,0.07,infected ears,krivels
12,7479,twostep_elicitation,accidental,3,0.46,0.22,muddy feathers,crullets
12,9640,twostep_elicitation,part,4,0.88,1,teeth,cheebas
12,8586,twostep_elicitation,vague,5,0.69,0.94,big claws,glippets
12,6638,twostep_elicitation,accidental,6,0.5,0.07,itchy tails,reesles
12,7694,twostep_elicitation,disease,7,0.41,0.03,burned skin,sapers
12,6288,twostep_elicitation,disease,8,0.36,0.02,torn tails,grinks
12,5624,twostep_elicitation,part,9,0.9,1,tails,taifels
12,6770,twostep_elicitation,vague,10,0.72,0.95,long teeth,daiths
12,5742,twostep_elicitation,accidental,11,0.49,0.04,sore legs,plovs
12,5977,twostep_elicitation,vague,12,0.61,0.53,curly fur,javs
12,6302,twostep_elicitation,color,13,0.62,0.86,blue claws,zorbs
12,6524,twostep_elicitation,part,14,0.95,1,ears,ackles
12,4015,twostep_elicitation,part,15,0.91,1,claws,zoovs
12,4492,twostep_elicitation,color,16,0.68,0.72,violet skin,trufts
12,5302,twostep_elicitation,vague,17,0.7,0.92,long tails,thups
12,7032,twostep_elicitation,disease,18,0.49,0.02,torn feathers,mooks
12,8264,twostep_elicitation,vague,19,0.61,0.8,small ears,stups
12,5400,twostep_elicitation,disease,20,0.78,0.02,rotten teeth,wugs
12,6622,twostep_elicitation,color,21,0.62,0.72,silver legs,frams
12,5539,twostep_elicitation,disease,22,0.57,0.16,worn-out claws,dorbs
12,5879,twostep_elicitation,accidental,23,0.69,0.04,cracked claws,luzaks
12,5002,twostep_elicitation,color,24,0.68,0.71,orange ears,pangolins
12,5669,twostep_elicitation,accidental,25,0.64,0.03,sore teeth,kazzes
12,4662,twostep_elicitation,part,26,1,1,skin,blins
12,5741,twostep_elicitation,accidental,27,0.54,0.03,swollen ears,elleps
12,7039,twostep_elicitation,color,28,0.68,0.7,orange tails,moxes
12,5302,twostep_elicitation,part,29,1,0.99,fur,feps
13,3455,twostep_elicitation,color,0,0.53,0.63,pink teeth,kweps
13,3503,twostep_elicitation,vague,1,0.66,0.82,big claws,ollers
13,3673,twostep_elicitation,accidental,2,0.53,0.34,swollen ears,wugs
13,3108,twostep_elicitation,part,3,0.47,0.7,teeth,dorbs
13,10894,twostep_elicitation,vague,4,0.7,0.85,long teeth,thups
13,4669,twostep_elicitation,vague,5,0.54,0.79,small ears,reesles
13,4284,twostep_elicitation,color,6,0.43,0.64,orange ears,stups
13,10727,twostep_elicitation,disease,7,0.65,0.51,torn tails,taifels
13,13536,twostep_elicitation,disease,8,0.56,0.8,burned skin,trufts
13,3816,twostep_elicitation,accidental,9,0.61,0.47,muddy feathers,kazzes
13,4259,twostep_elicitation,part,10,0.82,0.57,skin,moxes
13,3841,twostep_elicitation,vague,11,0.75,0.67,long legs,grinks
13,13488,twostep_elicitation,accidental,12,0.41,0.73,sore legs,frams
13,6299,twostep_elicitation,disease,13,0.63,0.78,worn-out claws,zoovs
13,3781,twostep_elicitation,color,14,0.84,0.6,purple feathers,plovs
13,3287,twostep_elicitation,vague,15,0.86,0.62,rough skin,cheebas
13,12696,twostep_elicitation,vague,16,0.68,0.76,smooth feathers,luzaks
13,3516,twostep_elicitation,part,17,0.52,0.83,fur,pangolins
13,2964,twostep_elicitation,part,18,0.64,0.8,feathers,morseths
13,5508,twostep_elicitation,disease,19,0.8,0.63,rotten teeth,zorbs
13,2928,twostep_elicitation,part,20,0.54,0.87,claws,javs
13,3095,twostep_elicitation,accidental,21,0.75,0.65,sore teeth,sapers
13,2784,twostep_elicitation,color,22,0.74,0.85,yellow fur,daiths
13,2352,twostep_elicitation,part,23,0.6,0.88,tails,ackles
13,2317,twostep_elicitation,disease,24,0.58,0.72,fungus-covered fur,lorches
13,2722,twostep_elicitation,accidental,25,0.65,0.76,wet fur,mooks
13,2521,twostep_elicitation,color,26,0.72,0.58,orange tails,glippets
13,3912,twostep_elicitation,disease,27,0.93,0.64,torn feathers,feps
13,2401,twostep_elicitation,accidental,28,0.78,0.69,itchy tails,elleps
13,4535,twostep_elicitation,color,29,0.77,0.64,violet skin,blins
14,10687,twostep_elicitation,part,0,0.35,1,feathers,moxes
14,16987,twostep_elicitation,color,1,0.48,0.3,orange tails,plovs
14,15537,twostep_elicitation,disease,2,0.2,0.05,broken legs,wugs
14,10380,twostep_elicitation,color,3,0.5,0.25,orange ears,thups
14,10684,twostep_elicitation,vague,4,0.47,1,small ears,elleps
14,15812,twostep_elicitation,vague,5,0.48,0.5,long tails,dorbs
14,8559,twostep_elicitation,color,6,0.21,0.06,silver legs,grinks
14,16930,twostep_elicitation,accidental,7,1,0.1,wet fur,taifels
14,10849,twostep_elicitation,vague,8,0.76,1,smooth feathers,luzaks
14,15898,twostep_elicitation,color,9,0.49,0.25,blue claws,zoovs
14,7436,twostep_elicitation,vague,10,0.77,1,rough skin,frams
14,7779,twostep_elicitation,part,11,1,1,skin,lorches
14,8252,twostep_elicitation,accidental,12,0.5,0.25,dusty skin,feps
14,9653,twostep_elicitation,color,13,0.48,0.75,violet skin,kazzes
14,9698,twostep_elicitation,color,14,0.22,0.05,pink teeth,daiths
14,9015,twostep_elicitation,accidental,15,0.79,0.8,muddy feathers,ollers
14,5765,twostep_elicitation,part,16,1,1,teeth,pangolins
14,14631,twostep_elicitation,vague,17,0.5,0.2,long teeth,javs
14,8546,twostep_elicitation,accidental,18,0,0.05,sore teeth,cheebas
14,8368,twostep_elicitation,disease,19,0.15,0.05,infected ears,glippets
14,7517,twostep_elicitation,part,20,0.72,1,claws,stups
14,6686,twostep_elicitation,disease,21,0.11,0.05,burned skin,trufts
14,8459,twostep_elicitation,vague,22,0.49,0.8,curly fur,krivels
14,8212,twostep_elicitation,disease,23,0.04,0.02,fungus-covered fur,zorbs
14,8445,twostep_elicitation,accidental,24,0.19,0.1,itchy tails,sapers
14,6879,twostep_elicitation,disease,25,0.75,0.75,worn-out claws,reesles
14,10150,twostep_elicitation,disease,26,0.74,0.75,rotten teeth,blins
14,5678,twostep_elicitation,part,27,1,1,ears,kweps
14,5172,twostep_elicitation,part,28,0.88,1,fur,mooks
14,11981,twostep_elicitation,accidental,29,0.12,0.05,sore legs,crullets
15,10804,twostep_elicitation,color,0,0.14,0.08,violet skin,pangolins
15,92441,twostep_elicitation,part,1,1,1,legs,cheebas
15,14105,twostep_elicitation,disease,2,0.83,0.17,broken legs,frams
15,10888,twostep_elicitation,vague,3,0.31,0.91,rough skin,morseths
15,7339,twostep_elicitation,part,4,1,1,skin,reesles
15,9124,twostep_elicitation,vague,5,0.49,0.92,small ears,sapers
15,8127,twostep_elicitation,vague,6,0.34,0.87,curly fur,stups
15,8258,twostep_elicitation,accidental,7,0.87,0.14,itchy tails,feps
15,7305,twostep_elicitation,vague,8,0.21,0.86,smooth feathers,trufts
15,8354,twostep_elicitation,part,9,0.55,1,fur,moxes
15,7760,twostep_elicitation,disease,10,0.5,0.72,worn-out claws,kweps
15,6948,twostep_elicitation,disease,11,0.47,0.13,infected ears,ollers
15,6848,twostep_elicitation,part,12,0.96,1,teeth,crullets
15,8892,twostep_elicitation,disease,13,0.22,0.06,fungus-covered fur,luzaks
15,5667,twostep_elicitation,vague,14,0.52,0.81,long tails,daiths
15,6724,twostep_elicitation,disease,15,0.45,0.31,torn feathers,plovs
15,15973,twostep_elicitation,disease,16,0.53,0.42,rotten teeth,krivels
15,5723,twostep_elicitation,accidental,17,0.45,0.46,dusty skin,lorches
15,7520,twostep_elicitation,accidental,18,0.51,0.16,wet fur,wugs
15,5533,twostep_elicitation,accidental,19,0.4,0.15,cracked claws,grinks
15,4883,twostep_elicitation,part,20,0.65,1,tails,ackles
15,5719,twostep_elicitation,color,21,0.23,0.45,silver legs,glippets
15,6456,twostep_elicitation,color,22,0.05,0.42,purple feathers,mooks
15,6192,twostep_elicitation,accidental,23,0.56,0.47,sore legs,blins
15,4544,twostep_elicitation,accidental,24,0.3,0.09,swollen ears,thups
15,7027,twostep_elicitation,color,25,0.5,0.78,orange tails,zorbs
15,5272,twostep_elicitation,part,26,0.5,1,feathers,taifels
15,5671,twostep_elicitation,color,27,0.18,0.45,blue claws,zoovs
15,5168,twostep_elicitation,color,28,0.04,0.64,pink teeth,dorbs
15,4260,twostep_elicitation,vague,29,0.44,0.88,long teeth,elleps
16,21550,twostep_elicitation,disease,0,0.56,0.89,worn-out claws,luzaks
16,12879,twostep_elicitation,vague,1,0.48,1,long teeth,pangolins
16,10090,twostep_elicitation,disease,2,0.19,0.06,burned skin,kweps
16,6110,twostep_elicitation,vague,3,0.49,0.98,small ears,zorbs
16,6953,twostep_elicitation,vague,4,0.5,1,big claws,moxes
16,15796,twostep_elicitation,color,5,0.07,1,orange ears,ollers
16,5899,twostep_elicitation,accidental,6,0.33,1,dusty skin,mooks
16,6516,twostep_elicitation,disease,7,0.15,0.69,torn feathers,thups
16,5451,twostep_elicitation,color,8,0.07,1,pink teeth,grinks
16,8066,twostep_elicitation,color,9,0.08,0.5,silver legs,wugs
16,8232,twostep_elicitation,part,10,1,0.98,ears,dorbs
16,5709,twostep_elicitation,accidental,11,0.23,0.78,sore teeth,blins
16,7173,twostep_elicitation,accidental,12,0.48,1,wet fur,lorches
16,5824,twostep_elicitation,disease,13,0.52,0.77,torn tails,reesles
16,6516,twostep_elicitation,part,14,0.85,1,fur,kazzes
16,7714,twostep_elicitation,vague,15,0.53,1,long legs,frams
16,11296,twostep_elicitation,disease,16,0.04,1,fungus-covered fur,elleps
16,8673,twostep_elicitation,disease,17,0.68,0.07,broken legs,stups
16,6944,twostep_elicitation,vague,18,0.56,1,long tails,taifels
16,4965,twostep_elicitation,vague,19,0.75,1,rough skin,sapers
16,4103,twostep_elicitation,part,20,1,0.98,skin,crullets
16,17276,twostep_elicitation,part,21,0.88,1,tails,zoovs
16,4792,twostep_elicitation,part,22,0.97,0.99,teeth,feps
16,4711,twostep_elicitation,color,23,0.06,0.98,orange tails,plovs
16,4777,twostep_elicitation,part,24,0.88,0.98,claws,cheebas
16,6250,twostep_elicitation,color,25,0.06,0.98,blue claws,morseths
16,6441,twostep_elicitation,color,26,0.05,1,violet skin,trufts
16,15199,twostep_elicitation,accidental,27,0.24,0.35,muddy feathers,glippets
16,6064,twostep_elicitation,accidental,28,0.06,0.05,sore legs,krivels
16,5420,twostep_elicitation,accidental,29,0.05,0.04,itchy tails,ackles
17,21744,twostep_elicitation,accidental,0,0.29,0.27,muddy feathers,crullets
17,14753,twostep_elicitation,disease,1,0.49,0.5,rotten teeth,wugs
17,14866,twostep_elicitation,part,2,0.99,1,skin,dorbs
17,21442,twostep_elicitation,part,3,0.51,1,tails,frams
17,20689,twostep_elicitation,vague,4,0.52,0.77,small ears,luzaks
17,12531,twostep_elicitation,disease,5,0.5,0.5,torn feathers,zorbs
17,14786,twostep_elicitation,accidental,6,0.51,0.34,swollen ears,feps
17,16414,twostep_elicitation,accidental,7,0.52,0.25,wet fur,kazzes
17,9075,twostep_elicitation,accidental,8,0.51,0.25,itchy tails,taifels
17,12268,twostep_elicitation,part,9,0.73,1,ears,lorches
17,17133,twostep_elicitation,color,10,0.3,1,pink teeth,stups
17,10313,twostep_elicitation,vague,11,0.49,0.8,curly fur,mooks
17,11137,twostep_elicitation,accidental,12,0.51,0.8,dusty skin,grinks
17,12103,twostep_elicitation,vague,13,0.5,0.85,long legs,sapers
17,10571,twostep_elicitation,color,14,0.52,1,orange tails,ackles
17,11875,twostep_elicitation,disease,15,0.25,0.24,burned skin,glippets
17,15223,twostep_elicitation,color,16,0.49,1,orange ears,ollers
17,12110,twostep_elicitation,disease,17,0.22,0.09,broken legs,javs
17,14592,twostep_elicitation,disease,18,0.21,0.1,infected ears,plovs
17,9469,twostep_elicitation,disease,19,0.51,0.51,worn-out claws,zoovs
17,10711,twostep_elicitation,part,20,0.5,1,fur,thups
17,8410,twostep_elicitation,color,21,0.48,1,blue claws,morseths
17,8672,twostep_elicitation,color,22,0.5,1,yellow fur,trufts
17,8704,twostep_elicitation,vague,23,0.5,0.99,long tails,cheebas
17,11395,twostep_elicitation,part,24,0.52,1,feathers,daiths
17,7195,twostep_elicitation,part,25,0.51,1,teeth,moxes
17,8223,twostep_elicitation,vague,26,0.52,0.84,rough skin,elleps
17,9819,twostep_elicitation,vague,27,0.5,0.89,long teeth,kweps
17,9291,twostep_elicitation,accidental,28,0.27,0.14,sore teeth,blins
17,12023,twostep_elicitation,color,29,0.51,0.9,purple feathers,reesles
18,13556,twostep_elicitation,vague,0,0.32,0.25,curly fur,ackles
18,10226,twostep_elicitation,accidental,1,0.16,0.1,cracked claws,dorbs
18,9349,twostep_elicitation,vague,2,0.32,0.19,smooth feathers,luzaks
18,7774,twostep_elicitation,vague,3,0.23,1,long tails,daiths
18,16391,twostep_elicitation,accidental,4,0.03,0.13,swollen ears,wugs
18,16189,twostep_elicitation,disease,5,0.07,0.05,broken legs,kweps
18,6615,twostep_elicitation,part,6,0.34,1,claws,plovs
18,8505,twostep_elicitation,vague,7,0.23,0.9,small ears,ollers
18,25278,twostep_elicitation,color,8,0.14,0.88,orange ears,lorches
18,6954,twostep_elicitation,accidental,9,0.02,0.02,itchy tails,reesles
18,5174,twostep_elicitation,disease,10,0.07,0.05,infected ears,elleps
18,6469,twostep_elicitation,color,11,0.5,0.93,yellow fur,zorbs
18,6075,twostep_elicitation,vague,12,0.52,0.65,big claws,krivels
18,7380,twostep_elicitation,color,13,0.47,0.85,violet skin,taifels
18,8933,twostep_elicitation,disease,14,0.24,0.11,worn-out claws,feps
18,5963,twostep_elicitation,disease,15,0.07,0.13,burned skin,frams
18,5489,twostep_elicitation,accidental,16,0.14,0.11,muddy feathers,morseths
18,5681,twostep_elicitation,color,17,0.56,1,purple feathers,moxes
18,5299,twostep_elicitation,color,18,0.19,0.61,blue claws,kazzes
18,5670,twostep_elicitation,disease,19,0.16,0.09,torn feathers,thups
18,6761,twostep_elicitation,part,20,1,1,teeth,trufts
18,5400,twostep_elicitation,part,21,0.69,0.93,fur,sapers
18,60480,twostep_elicitation,part,22,0.72,0.99,feathers,mooks
18,4163,twostep_elicitation,accidental,23,0.13,0.16,wet fur,crullets
18,3846,twostep_elicitation,accidental,24,0.09,0.1,dusty skin,grinks
18,4928,twostep_elicitation,vague,25,0.58,0.89,long legs,cheebas
18,4523,twostep_elicitation,color,26,0.5,0.92,pink teeth,glippets
18,4702,twostep_elicitation,disease,27,0.22,0.03,fungus-covered fur,blins
18,4556,twostep_elicitation,part,28,1,1,ears,pangolins
18,4838,twostep_elicitation,part,29,0.75,1,tails,stups
19,14434,twostep_elicitation,part,0,0.99,1,ears,kweps
19,15011,twostep_elicitation,part,1,0.73,1,claws,glippets
19,15428,twostep_elicitation,vague,2,0.57,1,rough skin,elleps
19,19306,twostep_elicitation,disease,3,0.08,0.05,burned skin,luzaks
19,9869,twostep_elicitation,part,4,0.99,0.99,legs,trufts
19,11724,twostep_elicitation,accidental,5,0.08,0.04,swollen ears,ollers
19,13567,twostep_elicitation,accidental,6,0.52,0.54,muddy feathers,reesles
19,14486,twostep_elicitation,color,7,0.01,0.99,pink teeth,lorches
19,11228,twostep_elicitation,part,8,0.74,1,fur,zorbs
19,11715,twostep_elicitation,color,9,0.39,1,orange tails,sapers
19,8602,twostep_elicitation,accidental,10,0.11,0.1,sore teeth,daiths
19,11271,twostep_elicitation,vague,11,0.48,1,long teeth,ackles
19,11093,twostep_elicitation,accidental,12,0.56,0.51,dusty skin,stups
19,11985,twostep_elicitation,disease,13,0.11,0.1,torn tails,krivels
19,12204,twostep_elicitation,color,14,0.01,0.9,blue claws,zoovs
19,10830,twostep_elicitation,accidental,15,0.17,0.13,sore legs,pangolins
19,8871,twostep_elicitation,part,16,0.95,1,tails,feps
19,11707,twostep_elicitation,disease,17,0.36,0.3,rotten teeth,wugs
19,12565,twostep_elicitation,vague,18,0.73,0.95,small ears,crullets
19,11520,twostep_elicitation,vague,19,0.4,1,curly fur,taifels
19,14427,twostep_elicitation,vague,20,0.36,1,long legs,moxes
19,7458,twostep_elicitation,color,21,0.74,0.87,yellow fur,grinks
19,10343,twostep_elicitation,disease,22,0.31,0.15,worn-out claws,javs
19,7708,twostep_elicitation,accidental,23,0.15,0.11,cracked claws,mooks
19,7387,twostep_elicitation,disease,24,0.05,0.03,broken legs,thups
19,13162,twostep_elicitation,color,25,0.01,1,violet skin,frams
19,15496,twostep_elicitation,vague,26,0.56,0.9,long tails,dorbs
19,7290,twostep_elicitation,part,27,1,1,teeth,cheebas
19,7648,twostep_elicitation,disease,28,0.36,0.2,torn feathers,blins
19,14225,twostep_elicitation,color,29,0.24,0.75,purple feathers,kazzes
20,23357,twostep_elicitation,part,0,0.86,1,ears,ollers
20,10290,twostep_elicitation,accidental,1,0.22,0.05,sore teeth,plovs
20,10661,twostep_elicitation,disease,2,0.18,0.05,infected ears,reesles
20,11872,twostep_elicitation,vague,3,0.48,0.8,curly fur,luzaks
20,13790,twostep_elicitation,color,4,0.37,0.7,yellow fur,mooks
20,10190,twostep_elicitation,vague,5,0.49,0.85,long tails,wugs
20,13607,twostep_elicitation,part,6,0.57,1,fur,lorches
20,12893,twostep_elicitation,vague,7,0.63,0.95,small ears,pangolins
20,14482,twostep_elicitation,part,8,0.52,1,tails,kazzes
20,14743,twostep_elicitation,color,9,0.13,0.75,blue claws,morseths
20,15602,twostep_elicitation,disease,10,0.21,0.05,torn tails,zoovs
20,8777,twostep_elicitation,vague,11,0.5,0.85,rough skin,glippets
20,12819,twostep_elicitation,accidental,12,0.58,0.75,wet fur,feps
20,9884,twostep_elicitation,part,13,0.7,1,claws,moxes
20,14866,twostep_elicitation,accidental,14,0.41,0.7,muddy feathers,trufts
20,7421,twostep_elicitation,vague,15,0.65,0.9,long teeth,crullets
20,9278,twostep_elicitation,color,16,0.15,0.6,violet skin,ackles
20,10619,twostep_elicitation,disease,17,0.23,0.02,burned skin,kweps
20,21690,twostep_elicitation,color,18,0.03,0.01,pink teeth,dorbs
20,9656,twostep_elicitation,color,19,0.57,0.9,orange ears,stups
20,7426,twostep_elicitation,part,20,0.88,1,teeth,elleps
20,9049,twostep_elicitation,disease,21,0.3,0.05,torn feathers,thups
20,11665,twostep_elicitation,disease,22,0.18,0.1,rotten teeth,krivels
20,11302,twostep_elicitation,accidental,23,0.27,0.2,cracked claws,cheebas
20,6787,twostep_elicitation,part,24,0.79,1,legs,javs
20,9437,twostep_elicitation,vague,25,0.55,0.9,smooth feathers,grinks
20,9183,twostep_elicitation,accidental,26,0.26,0.05,itchy tails,blins
20,8620,twostep_elicitation,disease,27,0.17,0.01,broken legs,zorbs
20,10380,twostep_elicitation,accidental,28,0.35,0.5,sore legs,frams
20,9335,twostep_elicitation,color,29,0.36,0.65,purple feathers,sapers
21,15615,twostep_elicitation,accidental,0,0.64,0.27,cracked claws,ollers
21,13375,twostep_elicitation,color,1,0.5,0.9,yellow fur,stups
21,12687,twostep_elicitation,disease,2,0.94,0.29,worn-out claws,morseths
21,9255,twostep_elicitation,accidental,3,0.28,0.5,swollen ears,reesles
21,12336,twostep_elicitation,vague,4,0.49,0.8,rough skin,sapers
21,7359,twostep_elicitation,color,5,0.1,0.92,purple feathers,feps
21,9055,twostep_elicitation,disease,6,0.9,0.07,broken legs,krivels
21,16143,twostep_elicitation,vague,7,0.18,0.92,smooth feathers,grinks
21,17912,twostep_elicitation,disease,8,0.33,0.34,torn tails,thups
21,6518,twostep_elicitation,part,9,0.88,1,fur,trufts
21,14887,twostep_elicitation,part,10,0.91,0.99,teeth,lorches
21,9335,twostep_elicitation,part,11,0.96,0.99,ears,zorbs
21,7975,twostep_elicitation,vague,12,0.35,0.9,long teeth,dorbs
21,9271,twostep_elicitation,vague,13,0.48,0.82,curly fur,elleps
21,7437,twostep_elicitation,part,14,1,1,legs,frams
21,7376,twostep_elicitation,accidental,15,0.33,0.33,dusty skin,blins
21,7408,twostep_elicitation,accidental,16,0.93,0.11,wet fur,pangolins
21,13775,twostep_elicitation,color,17,0.21,0.91,orange tails,luzaks
21,7952,twostep_elicitation,color,18,0.14,0.9,silver legs,daiths
21,9895,twostep_elicitation,disease,19,0.2,0.09,fungus-covered fur,kazzes
21,8000,twostep_elicitation,part,20,0.81,0.98,claws,plovs
21,5327,twostep_elicitation,accidental,21,0.92,0.09,sore teeth,cheebas
21,6856,twostep_elicitation,color,22,0.16,0.87,orange ears,ackles
21,7407,twostep_elicitation,disease,23,0.85,0.08,rotten teeth,moxes
21,11104,twostep_elicitation,vague,24,0.12,0.82,long tails,javs
21,7904,twostep_elicitation,part,25,0.26,0.98,feathers,wugs
21,9319,twostep_elicitation,color,26,0.05,0.09,pink teeth,zoovs
21,6472,twostep_elicitation,vague,27,0.51,0.83,small ears,taifels
21,9447,twostep_elicitation,accidental,28,0.88,0.11,muddy feathers,crullets
21,6864,twostep_elicitation,disease,29,0.86,0.09,torn feathers,mooks
22,16189,twostep_elicitation,disease,0,0.97,0.1,rotten teeth,sapers
22,8063,twostep_elicitation,vague,1,0.99,0.5,small ears,daiths
22,13318,twostep_elicitation,disease,2,0.75,0.04,burned skin,blins
22,10063,twostep_elicitation,vague,3,0.68,0.31,long legs,crullets
22,8560,twostep_elicitation,disease,4,0.86,0.37,worn-out claws,zorbs
22,9992,twostep_elicitation,part,5,0.99,0.99,skin,moxes
22,14358,twostep_elicitation,color,6,0.5,0.52,yellow fur,grinks
22,10199,twostep_elicitation,vague,7,0.65,0.36,big claws,reesles
22,14559,twostep_elicitation,part,8,0.82,0.95,claws,thups
22,8679,twostep_elicitation,disease,9,0.7,0.37,torn tails,luzaks
22,8824,twostep_elicitation,accidental,10,0.67,0.15,sore legs,zoovs
22,12439,twostep_elicitation,color,11,0.46,0.61,orange tails,pangolins
22,8247,twostep_elicitation,color,12,0.39,0.63,blue claws,elleps
22,9376,twostep_elicitation,vague,13,0.99,0.73,long tails,krivels
22,9089,twostep_elicitation,color,14,0.42,0.84,violet skin,stups
22,9974,twostep_elicitation,vague,15,0.7,0.75,rough skin,kazzes
22,7383,twostep_elicitation,vague,16,0.88,0.37,long teeth,kweps
22,10264,twostep_elicitation,disease,17,0.98,0.08,infected ears,ackles
22,9934,twostep_elicitation,disease,18,0.49,0.11,torn feathers,cheebas
22,8136,twostep_elicitation,part,19,0.5,0.99,feathers,morseths
22,6664,twostep_elicitation,color,20,0.36,0.75,silver legs,feps
22,8240,twostep_elicitation,accidental,21,0.35,0.1,itchy tails,dorbs
22,12279,twostep_elicitation,part,22,0.73,0.98,tails,javs
22,9247,twostep_elicitation,accidental,23,0.35,0.31,dusty skin,trufts
22,27240,twostep_elicitation,part,24,0.72,1,legs,ollers
22,10478,twostep_elicitation,accidental,25,0.29,0.24,muddy feathers,lorches
22,8543,twostep_elicitation,accidental,26,0.55,0.62,wet fur,wugs
22,7792,twostep_elicitation,part,27,0.92,0.99,ears,mooks
22,6160,twostep_elicitation,color,28,0.35,0.79,pink teeth,frams
22,9208,twostep_elicitation,accidental,29,0.68,0.22,swollen ears,plovs
23,36612,twostep_elicitation,part,0,0.5,0.75,claws,thups
23,27279,twostep_elicitation,accidental,1,0.49,0.8,cracked claws,krivels
23,23839,twostep_elicitation,vague,2,0.27,0.2,long teeth,luzaks
23,24172,twostep_elicitation,color,3,0.22,0.4,violet skin,morseths
23,15977,twostep_elicitation,disease,4,0.13,0.15,infected ears,glippets
23,17987,twostep_elicitation,color,5,0.07,0.4,silver legs,kazzes
23,23620,twostep_elicitation,accidental,6,0.23,0.8,wet fur,kweps
23,17687,twostep_elicitation,vague,7,0.8,0.9,small ears,zoovs
23,18778,twostep_elicitation,vague,8,0.38,0.7,big claws,ollers
23,15346,twostep_elicitation,part,9,0.88,0.98,skin,wugs
23,20948,twostep_elicitation,vague,10,0.14,0.1,curly fur,cheebas
23,16917,twostep_elicitation,disease,11,0.8,0.4,worn-out claws,sapers
23,16293,twostep_elicitation,part,12,0.71,0.9,ears,ackles
23,12228,twostep_elicitation,accidental,13,0.24,0.35,dusty skin,frams
23,9520,twostep_elicitation,part,14,0.9,0.96,teeth,crullets
23,16509,twostep_elicitation,color,15,0.05,0.05,blue claws,lorches
23,12805,twostep_elicitation,color,16,0.2,0.4,orange tails,daiths
23,15752,twostep_elicitation,color,17,0.14,0.1,purple feathers,zorbs
23,15176,twostep_elicitation,vague,18,0.64,0.8,long legs,pangolins
23,25445,twostep_elicitation,accidental,19,0.39,0.1,muddy feathers,plovs
23,13310,twostep_elicitation,disease,20,0.09,0.1,rotten teeth,stups
23,8280,twostep_elicitation,accidental,21,0.2,0.1,swollen ears,dorbs
23,14549,twostep_elicitation,part,22,0.8,0.95,tails,taifels
23,14093,twostep_elicitation,disease,23,0.57,0.3,torn feathers,javs
23,13252,twostep_elicitation,color,24,0.14,0.9,pink teeth,elleps
23,12081,twostep_elicitation,part,25,0.42,0.95,feathers,moxes
23,12614,twostep_elicitation,accidental,26,0.09,0.1,itchy tails,trufts
23,17067,twostep_elicitation,disease,27,0.17,0.02,broken legs,feps
23,16942,twostep_elicitation,vague,28,0.54,0.7,long tails,mooks
23,23447,twostep_elicitation,disease,29,0.2,0.1,torn tails,blins
24,64463,twostep_elicitation,vague,0,0.5,1,small ears,blins
24,5038,twostep_elicitation,vague,1,0.5,0.96,curly fur,plovs
24,3328,twostep_elicitation,color,2,0.53,1,violet skin,luzaks
24,3766,twostep_elicitation,accidental,3,0.22,0.06,itchy tails,ollers
24,6502,twostep_elicitation,vague,4,0.49,0.85,smooth feathers,pangolins
24,4644,twostep_elicitation,vague,5,0.52,0.52,rough skin,zorbs
24,2976,twostep_elicitation,color,6,0.53,0.81,blue claws,kazzes
24,4774,twostep_elicitation,disease,7,0.4,0.11,torn feathers,grinks
24,2538,twostep_elicitation,color,8,0.55,0.92,orange tails,taifels
24,4556,twostep_elicitation,part,9,0.48,1,skin,feps
24,4225,twostep_elicitation,color,10,0.5,0.9,yellow fur,sapers
24,5058,twostep_elicitation,part,11,0.5,1,ears,crullets
24,4248,twostep_elicitation,disease,12,0.5,0.22,worn-out claws,trufts
24,3110,twostep_elicitation,color,13,0.51,0.92,silver legs,dorbs
24,2909,twostep_elicitation,accidental,14,0.54,0.26,sore legs,reesles
24,3198,twostep_elicitation,vague,15,0.52,0.56,big claws,zoovs
24,1774,twostep_elicitation,accidental,16,0.49,0.22,sore teeth,elleps
24,1752,twostep_elicitation,disease,17,0.52,0.18,rotten teeth,daiths
24,2125,twostep_elicitation,vague,18,0.52,0.94,long tails,glippets
24,4249,twostep_elicitation,part,19,0.51,1,teeth,lorches
24,4202,twostep_elicitation,color,20,0.51,1,purple feathers,kweps
24,2540,twostep_elicitation,accidental,21,0.52,0.24,dusty skin,stups
24,2430,twostep_elicitation,accidental,22,0.54,0.2,muddy feathers,cheebas
24,4228,twostep_elicitation,part,23,0.55,0.88,fur,morseths
24,2496,twostep_elicitation,accidental,24,0.51,0.2,swollen ears,moxes
24,1882,twostep_elicitation,disease,25,0.51,0.16,infected ears,krivels
24,2694,twostep_elicitation,part,26,0.5,1,feathers,thups
24,1948,twostep_elicitation,disease,27,0.52,0.15,torn tails,ackles
24,2058,twostep_elicitation,disease,28,0.54,0.14,burned skin,mooks
24,2540,twostep_elicitation,part,29,0.5,1,tails,frams
25,16004,twostep_elicitation,disease,0,0.95,0.11,infected ears,grinks
25,16593,twostep_elicitation,part,1,0.99,0.98,claws,luzaks
25,9550,twostep_elicitation,vague,2,0.98,0.99,long teeth,morseths
25,14598,twostep_elicitation,color,3,0.22,0.5,yellow fur,blins
25,13408,twostep_elicitation,disease,4,0.98,0.71,torn feathers,stups
25,71571,twostep_elicitation,disease,5,0.96,0.69,torn tails,zoovs
25,7724,twostep_elicitation,disease,6,0.97,0.11,broken legs,feps
25,6963,twostep_elicitation,vague,7,0.98,0.86,long tails,thups
25,11823,twostep_elicitation,color,8,0.21,0.7,purple feathers,lorches
25,10393,twostep_elicitation,accidental,9,0.23,0.09,swollen ears,daiths
25,9309,twostep_elicitation,vague,10,0.73,0.75,curly fur,trufts
25,16403,twostep_elicitation,disease,11,0.99,0.74,rotten teeth,frams
25,11614,twostep_elicitation,part,12,0.99,0.97,skin,kazzes
25,10753,twostep_elicitation,color,13,0.12,0.3,orange ears,wugs
25,5044,twostep_elicitation,accidental,14,0.97,0.67,cracked claws,crullets
25,4532,twostep_elicitation,color,15,0.11,0.22,silver legs,krivels
25,4030,twostep_elicitation,vague,16,0.99,0.89,big claws,ollers
25,5246,twostep_elicitation,disease,17,0.97,0.9,fungus-covered fur,sapers
25,4694,twostep_elicitation,accidental,18,1,0.89,itchy tails,elleps
25,4898,twostep_elicitation,vague,19,0.97,0.79,rough skin,plovs
25,8474,twostep_elicitation,part,20,0.98,0.98,legs,pangolins
25,7156,twostep_elicitation,accidental,21,0.97,0.84,muddy feathers,cheebas
25,10523,twostep_elicitation,part,22,0.98,0.97,teeth,reesles
25,6134,twostep_elicitation,vague,23,1,0.87,smooth feathers,dorbs
25,5788,twostep_elicitation,accidental,24,0.97,0.89,dusty skin,mooks
25,5688,twostep_elicitation,color,25,0.13,0.22,violet skin,zorbs
25,7821,twostep_elicitation,color,26,0.13,0.2,orange tails,moxes
25,4403,twostep_elicitation,accidental,27,0.97,0.71,sore teeth,javs
25,28345,twostep_elicitation,part,28,0.99,0.99,feathers,glippets
25,4503,twostep_elicitation,part,29,0.99,0.98,tails,kweps
26,27831,twostep_elicitation,color,0,0.09,0.72,blue claws,ollers
26,17273,twostep_elicitation,vague,1,0.08,0.82,smooth feathers,sapers
26,13365,twostep_elicitation,part,2,1,1,legs,trufts
26,30163,twostep_elicitation,vague,3,0.51,0.68,small ears,taifels
26,14436,twostep_elicitation,part,4,0.91,1,teeth,glippets
26,16406,twostep_elicitation,color,5,0.06,0.51,orange tails,crullets
26,11836,twostep_elicitation,accidental,6,0.05,0.77,dusty skin,krivels
26,16453,twostep_elicitation,disease,7,0.48,0.66,worn-out claws,stups
26,22269,twostep_elicitation,part,8,0.65,1,fur,kweps
26,15879,twostep_elicitation,accidental,9,0.57,0.14,itchy tails,blins
26,13558,twostep_elicitation,accidental,10,0.11,0.06,wet fur,ackles
26,14409,twostep_elicitation,accidental,11,0.31,0.05,sore teeth,wugs
26,11856,twostep_elicitation,accidental,12,0.05,0.04,sore legs,elleps
26,11458,twostep_elicitation,disease,13,0.33,0.63,rotten teeth,morseths
26,18227,twostep_elicitation,disease,14,0.06,0.02,torn tails,kazzes
26,12907,twostep_elicitation,disease,15,0.17,0.05,infected ears,zorbs
26,14364,twostep_elicitation,disease,16,0.03,0.02,broken legs,luzaks
26,15436,twostep_elicitation,vague,17,0.34,0.85,big claws,pangolins
26,10618,twostep_elicitation,part,18,1,1,skin,grinks
26,45170,twostep_elicitation,accidental,19,0.04,0.02,muddy feathers,daiths
26,12240,twostep_elicitation,vague,20,0.26,0.9,long tails,javs
26,13207,twostep_elicitation,vague,21,0.48,0.95,rough skin,dorbs
26,13766,twostep_elicitation,vague,22,0.26,0.93,curly fur,zoovs
26,15578,twostep_elicitation,part,23,0.25,1,feathers,plovs
26,11427,twostep_elicitation,color,24,0.05,0.79,silver legs,frams
26,9849,twostep_elicitation,part,25,0.42,0.89,tails,lorches
26,17048,twostep_elicitation,color,26,0.1,0.88,purple feathers,reesles
26,26188,twostep_elicitation,color,27,0.07,0.69,orange ears,thups
26,14223,twostep_elicitation,color,28,0.17,0.86,violet skin,mooks
26,9665,twostep_elicitation,disease,29,0.03,0.02,burned skin,cheebas
27,10040,twostep_elicitation,accidental,0,0.49,1,dusty skin,crullets
27,8716,twostep_elicitation,vague,1,0.49,0.87,long tails,krivels
27,4822,twostep_elicitation,vague,2,0.47,0.8,small ears,moxes
27,4065,twostep_elicitation,vague,3,0.46,0.87,long teeth,ackles
27,4075,twostep_elicitation,accidental,4,0.21,0.52,sore legs,zoovs
27,4504,twostep_elicitation,disease,5,0.11,0.25,rotten teeth,grinks
27,6690,twostep_elicitation,color,6,0.5,0.94,pink teeth,cheebas
27,3427,twostep_elicitation,accidental,7,0.21,0.2,itchy tails,kweps
27,3799,twostep_elicitation,color,8,0.52,0.92,orange tails,elleps
27,5740,twostep_elicitation,color,9,0.51,0.99,yellow fur,plovs
27,4081,twostep_elicitation,color,10,0.49,0.99,silver legs,taifels
27,3294,twostep_elicitation,vague,11,0.51,0.98,smooth feathers,ollers
27,5990,twostep_elicitation,part,12,0.89,1,ears,kazzes
27,8017,twostep_elicitation,part,13,0.49,1,tails,blins
27,3450,twostep_elicitation,disease,14,0.47,0.51,torn feathers,luzaks
27,3300,twostep_elicitation,part,15,0.49,1,claws,wugs
27,10931,twostep_elicitation,disease,16,0.2,1,fungus-covered fur,lorches
27,3649,twostep_elicitation,part,17,0.49,1,fur,feps
27,4000,twostep_elicitation,disease,18,0.2,0.87,torn tails,pangolins
27,3717,twostep_elicitation,disease,19,0.17,0.19,burned skin,reesles
27,6359,twostep_elicitation,accidental,20,0.15,0.18,muddy feathers,dorbs
27,3752,twostep_elicitation,accidental,21,0.13,0.13,cracked claws,stups
27,3207,twostep_elicitation,color,22,0.51,1,purple feathers,mooks
27,4332,twostep_elicitation,part,23,1,1,skin,thups
27,6162,twostep_elicitation,vague,24,0.49,1,rough skin,daiths
27,2640,twostep_elicitation,vague,25,0.47,1,big claws,frams
27,2464,twostep_elicitation,color,26,0.49,1,orange ears,morseths
27,4252,twostep_elicitation,part,27,0.53,1,feathers,glippets
27,3668,twostep_elicitation,disease,28,0.15,0.12,worn-out claws,zorbs
27,3269,twostep_elicitation,accidental,29,0.11,0.15,sore teeth,javs
28,57175,twostep_elicitation,disease,0,0.33,0.61,worn-out claws,kazzes
28,30654,twostep_elicitation,color,1,0.48,0.8,orange ears,luzaks
28,18398,twostep_elicitation,vague,2,0.75,0.9,small ears,blins
28,18176,twostep_elicitation,part,3,1,1,legs,sapers
28,15704,twostep_elicitation,accidental,4,1,0.43,sore legs,zoovs
28,13152,twostep_elicitation,vague,5,0.68,1,long legs,ollers
28,12216,twostep_elicitation,part,6,1,1,fur,crullets
28,9215,twostep_elicitation,part,7,1,1,teeth,morseths
28,10040,twostep_elicitation,color,8,0.37,0.4,pink teeth,thups
28,16069,twostep_elicitation,accidental,9,0.86,0.36,sore teeth,kweps
28,10098,twostep_elicitation,color,10,0.39,1,orange tails,ackles
28,8949,twostep_elicitation,part,11,1,1,tails,glippets
28,10667,twostep_elicitation,color,12,0.53,0.68,violet skin,reesles
28,8830,twostep_elicitation,disease,13,0.51,0.41,infected ears,dorbs
28,10281,twostep_elicitation,disease,14,1,0.24,rotten teeth,javs
28,11610,twostep_elicitation,vague,15,1,0.69,rough skin,grinks
28,13126,twostep_elicitation,vague,16,0.73,1,smooth feathers,lorches
28,19480,twostep_elicitation,accidental,17,1,0.22,cracked claws,mooks
28,7377,twostep_elicitation,vague,18,1,1,long tails,pangolins
28,6216,twostep_elicitation,accidental,19,1,0.58,wet fur,plovs
28,6215,twostep_elicitation,color,20,0.58,0.52,silver legs,moxes
28,15832,twostep_elicitation,color,21,1,1,yellow fur,daiths
28,210335,twostep_elicitation,accidental,22,1,0.25,muddy feathers,taifels
28,11425,twostep_elicitation,disease,23,1,0.2,torn feathers,feps
28,19600,twostep_elicitation,vague,24,1,0.62,curly fur,wugs
28,8016,twostep_elicitation,part,25,1,1,feathers,cheebas
28,9438,twostep_elicitation,part,26,1,1,claws,zorbs
28,7937,twostep_elicitation,accidental,27,1,0.4,dusty skin,elleps
28,36035,twostep_elicitation,disease,28,1,0.65,fungus-covered fur,trufts
28,8253,twostep_elicitation,disease,29,0.99,0.3,torn tails,stups
29,16717,twostep_elicitation,accidental,0,0.5,0.5,sore teeth,dorbs
29,9995,twostep_elicitation,part,1,0.5,0.5,claws,wugs
29,13828,twostep_elicitation,color,2,0.5,0.5,violet skin,sapers
29,11293,twostep_elicitation,accidental,3,0.5,0.5,sore legs,moxes
29,107606,twostep_elicitation,vague,4,0.5,0.5,curly fur,pangolins
29,6447,twostep_elicitation,disease,5,0.5,0.5,burned skin,grinks
29,6117,twostep_elicitation,color,6,0.5,0.5,orange ears,crullets
29,18068,twostep_elicitation,part,7,0.5,0.5,skin,kazzes
29,6316,twostep_elicitation,color,8,0.5,0.5,silver legs,cheebas
29,5695,twostep_elicitation,accidental,9,0.5,0.5,swollen ears,frams
29,14956,twostep_elicitation,disease,10,0.5,0.5,broken legs,mooks
29,26666,twostep_elicitation,accidental,11,0.51,0.5,cracked claws,kweps
29,10849,twostep_elicitation,part,12,0.51,0.5,tails,thups
29,8609,twostep_elicitation,vague,13,0.5,0.5,rough skin,javs
29,3569,twostep_elicitation,vague,14,0.5,0.5,long legs,lorches
29,3476,twostep_elicitation,color,15,0.5,0.5,pink teeth,reesles
29,6953,twostep_elicitation,part,16,0.5,0.5,teeth,glippets
29,4448,twostep_elicitation,disease,17,0.5,0.5,worn-out claws,daiths
29,5418,twostep_elicitation,color,18,0.5,0.5,orange tails,trufts
29,4484,twostep_elicitation,vague,19,0.5,0.5,long tails,morseths
29,6454,twostep_elicitation,part,20,0.5,0.5,feathers,zorbs
29,4380,twostep_elicitation,accidental,21,0.51,0.5,itchy tails,stups
29,6564,twostep_elicitation,accidental,22,0.5,0.5,dusty skin,taifels
29,4182,twostep_elicitation,disease,23,0.51,0.5,torn feathers,feps
29,4462,twostep_elicitation,disease,24,0.5,0.5,torn tails,krivels
29,10929,twostep_elicitation,part,25,0.51,0.5,legs,ollers
29,14797,twostep_elicitation,vague,26,0.5,0.5,small ears,plovs
29,7906,twostep_elicitation,disease,27,0.5,0.5,rotten teeth,blins
29,3668,twostep_elicitation,color,28,0.5,0.5,yellow fur,zoovs
29,10099,twostep_elicitation,vague,29,0.5,0.5,big claws,elleps
30,22127,twostep_elicitation,color,0,0.97,0.25,yellow fur,zoovs
30,37335,twostep_elicitation,color,1,0.97,0.25,silver legs,javs
30,21392,twostep_elicitation,disease,2,0.03,0.05,torn feathers,luzaks
30,15184,twostep_elicitation,vague,3,0.99,0.5,small ears,crullets
30,12480,twostep_elicitation,accidental,4,0.52,0.07,sore teeth,feps
30,28384,twostep_elicitation,disease,5,0.96,0.14,rotten teeth,glippets
30,10176,twostep_elicitation,part,6,0.98,1,skin,daiths
30,29577,twostep_elicitation,color,7,0.96,0.5,purple feathers,taifels
30,8015,twostep_elicitation,disease,8,0.04,0.02,broken legs,grinks
30,10696,twostep_elicitation,part,9,0.99,1,legs,krivels
30,12137,twostep_elicitation,vague,10,0.97,0.85,long legs,sapers
30,10015,twostep_elicitation,vague,11,0.98,0.75,smooth feathers,morseths
30,9504,twostep_elicitation,disease,12,0.97,0.32,worn-out claws,kweps
30,6520,twostep_elicitation,part,13,0.97,1,tails,frams
30,5248,twostep_elicitation,part,14,0.98,1,teeth,ollers
30,7048,twostep_elicitation,accidental,15,0.98,0.18,cracked claws,wugs
30,10208,twostep_elicitation,vague,16,0.98,0.9,long tails,blins
30,10696,twostep_elicitation,disease,17,0.03,0.11,fungus-covered fur,elleps
30,4336,twostep_elicitation,part,18,0.97,1,feathers,pangolins
30,6856,twostep_elicitation,vague,19,0.99,1,rough skin,trufts
30,10671,twostep_elicitation,accidental,20,0.49,0.21,itchy tails,moxes
30,15160,twostep_elicitation,color,21,0.69,0.21,violet skin,mooks
30,4000,twostep_elicitation,vague,22,0.99,0.99,big claws,stups
30,9752,twostep_elicitation,color,23,0.78,0.3,orange ears,zorbs
30,6664,twostep_elicitation,disease,24,0.02,0,burned skin,plovs
30,7272,twostep_elicitation,accidental,25,0.31,0.06,sore legs,reesles
30,6584,twostep_elicitation,accidental,26,0.01,0.04,swollen ears,kazzes
30,6124,twostep_elicitation,accidental,27,0.1,0.03,dusty skin,ackles
30,6628,twostep_elicitation,color,28,0.98,0.2,orange tails,lorches
30,4488,twostep_elicitation,part,29,0.98,0.99,fur,cheebas
31,15668,twostep_elicitation,part,0,0.91,1,legs,frams
31,15787,twostep_elicitation,accidental,1,0.14,0.05,swollen ears,sapers
31,13555,twostep_elicitation,vague,2,0.65,0.88,big claws,mooks
31,18684,twostep_elicitation,vague,3,0.35,0.02,rough skin,cheebas
31,13951,twostep_elicitation,color,4,0.16,0.02,blue claws,dorbs
31,9390,twostep_elicitation,vague,5,0.68,0.97,long tails,luzaks
31,20952,twostep_elicitation,vague,6,0.71,0.87,long teeth,krivels
31,13888,twostep_elicitation,accidental,7,0.63,0.19,muddy feathers,lorches
31,10638,twostep_elicitation,vague,8,0.78,0.86,small ears,ollers
31,11011,twostep_elicitation,disease,9,0.73,0.12,torn feathers,feps
31,29727,twostep_elicitation,color,10,0.12,0.02,orange ears,daiths
31,10436,twostep_elicitation,accidental,11,0.62,0.09,sore legs,zorbs
31,8835,twostep_elicitation,vague,12,0.83,0.96,smooth feathers,crullets
31,8242,twostep_elicitation,part,13,0.85,0.95,tails,taifels
31,11073,twostep_elicitation,part,14,0.91,0.96,claws,trufts
31,16424,twostep_elicitation,disease,15,0.1,0.05,infected ears,kazzes
31,10744,twostep_elicitation,disease,16,0.1,0.02,fungus-covered fur,moxes
31,13218,twostep_elicitation,color,17,0.9,0.75,yellow fur,stups
31,12272,twostep_elicitation,color,18,0.09,0.02,silver legs,javs
31,10818,twostep_elicitation,disease,19,0.1,0.04,torn tails,morseths
31,7847,twostep_elicitation,disease,20,0.07,0.02,burned skin,elleps
31,8625,twostep_elicitation,color,21,0.17,0.02,pink teeth,thups
31,6597,twostep_elicitation,part,22,0.84,0.97,fur,glippets
31,10271,twostep_elicitation,part,23,0.85,0.93,ears,wugs
31,8968,twostep_elicitation,disease,24,0.57,0.26,worn-out claws,zoovs
31,23988,twostep_elicitation,accidental,25,0.61,0.36,dusty skin,blins
31,14799,twostep_elicitation,accidental,26,0.27,0.08,cracked claws,pangolins
31,7125,twostep_elicitation,accidental,27,0.59,0.05,sore teeth,plovs
31,5883,twostep_elicitation,part,28,0.96,0.97,teeth,grinks
31,9200,twostep_elicitation,color,29,0.42,0.18,orange tails,reesles
32,8764,twostep_elicitation,disease,0,0.5,0.56,worn-out claws,frams
32,2487,twostep_elicitation,vague,1,0.44,0.57,long teeth,moxes
32,8452,twostep_elicitation,vague,2,0.53,0.39,long legs,cheebas
32,5410,twostep_elicitation,accidental,3,0.66,0.44,dusty skin,trufts
32,3291,twostep_elicitation,color,4,0.64,0.51,blue claws,kazzes
32,2054,twostep_elicitation,color,5,0.6,0.48,violet skin,daiths
32,3968,twostep_elicitation,accidental,6,0.64,0.49,sore teeth,sapers
32,3514,twostep_elicitation,color,7,0.54,0.41,pink teeth,ackles
32,1840,twostep_elicitation,part,8,0.62,0.49,ears,kweps
32,2332,twostep_elicitation,part,9,0.61,0.46,legs,plovs
32,3251,twostep_elicitation,vague,10,0.63,0.49,smooth feathers,zorbs
32,2956,twostep_elicitation,vague,11,0.41,0.35,big claws,morseths
32,3020,twostep_elicitation,part,12,0.59,0.45,skin,feps
32,11754,twostep_elicitation,color,13,0.56,0.45,silver legs,taifels
32,2845,twostep_elicitation,disease,14,0.61,0.42,torn tails,lorches
32,2490,twostep_elicitation,disease,15,0.57,0.47,infected ears,luzaks
32,2257,twostep_elicitation,accidental,16,0.59,0.45,swollen ears,elleps
32,1933,twostep_elicitation,color,17,0.6,0.61,purple feathers,zoovs
32,2122,twostep_elicitation,vague,18,0.48,0.39,curly fur,glippets
32,2056,twostep_elicitation,accidental,19,0.58,0.45,muddy feathers,mooks
32,3228,twostep_elicitation,accidental,20,0.57,0.42,wet fur,dorbs
32,2731,twostep_elicitation,vague,21,0.51,0.6,small ears,blins
32,1909,twostep_elicitation,accidental,22,0.53,0.39,sore legs,crullets
32,2704,twostep_elicitation,color,23,0.59,0.45,orange tails,reesles
32,13454,twostep_elicitation,part,24,0.57,0.5,teeth,javs
32,2504,twostep_elicitation,part,25,0.59,0.47,tails,pangolins
32,2424,twostep_elicitation,part,26,0.61,0.39,claws,thups
32,2585,twostep_elicitation,disease,27,0.58,0.37,fungus-covered fur,grinks
32,2469,twostep_elicitation,disease,28,0.52,0.42,broken legs,wugs
32,6821,twostep_elicitation,disease,29,0.55,0.47,burned skin,ollers
33,63327,twostep_elicitation,part,0,0.53,1,feathers,plovs
33,40622,twostep_elicitation,part,1,0.7,0.95,claws,cheebas
33,66689,twostep_elicitation,vague,2,0.4,0.8,smooth feathers,sapers
33,57996,twostep_elicitation,accidental,3,0.18,0.1,itchy tails,stups
33,30138,twostep_elicitation,disease,4,0.26,0.05,infected ears,grinks
33,96138,twostep_elicitation,vague,5,0.55,0.9,big claws,krivels
33,10950,twostep_elicitation,disease,6,0.5,0.35,torn feathers,ackles
33,89283,twostep_elicitation,part,7,0.88,1,fur,elleps
33,54431,twostep_elicitation,part,8,0.98,1,skin,dorbs
33,10564,twostep_elicitation,vague,9,0.6,1,long legs,moxes
33,7809,twostep_elicitation,part,10,1,1,teeth,trufts
33,18844,twostep_elicitation,disease,11,0.34,0.05,fungus-covered fur,lorches
33,11325,twostep_elicitation,color,12,0,0,pink teeth,ollers
33,73508,twostep_elicitation,color,13,0,0,violet skin,mooks
33,11998,twostep_elicitation,vague,14,1,0.95,rough skin,reesles
33,17748,twostep_elicitation,disease,15,0.54,0.08,broken legs,morseths
33,13016,twostep_elicitation,disease,16,0.16,0.03,burned skin,zoovs
33,137463,twostep_elicitation,disease,17,0.39,0.15,torn tails,zorbs
33,12050,twostep_elicitation,color,18,0.26,1,orange ears,javs
33,12218,twostep_elicitation,accidental,19,0.51,0.25,sore legs,feps
33,4980,twostep_elicitation,vague,20,1,1,long teeth,kweps
33,4804,twostep_elicitation,part,21,1,1,legs,blins
33,13214,twostep_elicitation,accidental,22,1,0.3,muddy feathers,glippets
33,5672,twostep_elicitation,color,23,0,0,silver legs,frams
33,7234,twostep_elicitation,color,24,1,1,yellow fur,daiths
33,11588,twostep_elicitation,accidental,25,1,0.3,cracked claws,kazzes
33,4399,twostep_elicitation,vague,26,1,1,curly fur,thups
33,86920,twostep_elicitation,accidental,27,1,0.35,wet fur,pangolins
33,6669,twostep_elicitation,color,28,0.36,1,blue claws,crullets
33,7364,twostep_elicitation,accidental,29,1,0.15,swollen ears,luzaks
34,17463,twostep_elicitation,disease,0,0.26,0.1,broken legs,blins
34,7863,twostep_elicitation,vague,1,0.28,0.3,long tails,kazzes
34,11943,twostep_elicitation,vague,2,0.52,0.5,curly fur,kweps
34,8217,twostep_elicitation,color,3,0.52,0.17,orange ears,reesles
34,2440,twostep_elicitation,accidental,4,0.37,0.16,cracked claws,javs
34,8223,twostep_elicitation,color,5,0.46,0.5,orange tails,zoovs
34,8959,twostep_elicitation,color,6,0.3,0.13,purple feathers,ackles
34,7199,twostep_elicitation,accidental,7,0.57,0.64,sore legs,taifels
34,11160,twostep_elicitation,disease,8,0.51,0.5,rotten teeth,thups
34,6191,twostep_elicitation,vague,9,0.48,0.45,smooth feathers,luzaks
34,4504,twostep_elicitation,accidental,10,0.14,0.13,muddy feathers,plovs
34,4280,twostep_elicitation,accidental,11,0.18,0.13,dusty skin,stups
34,9000,twostep_elicitation,part,12,0.49,0.51,teeth,zorbs
34,6079,twostep_elicitation,accidental,13,0.49,0.5,swollen ears,morseths
34,8919,twostep_elicitation,disease,14,0.49,0.5,worn-out claws,elleps
34,6288,twostep_elicitation,part,15,0.31,0.36,claws,moxes
34,5737,twostep_elicitation,disease,16,0.17,0.15,torn tails,feps
34,8408,twostep_elicitation,part,17,0.81,0.82,ears,krivels
34,4576,twostep_elicitation,vague,18,0.47,0.51,long legs,pangolins
34,6097,twostep_elicitation,disease,19,0.06,0.08,burned skin,glippets
34,6071,twostep_elicitation,part,20,0.42,0.35,fur,ollers
34,4344,twostep_elicitation,color,21,0.07,0.22,blue claws,sapers
34,6856,twostep_elicitation,disease,22,0.08,0.04,torn feathers,lorches
34,4863,twostep_elicitation,color,23,0.3,0.48,violet skin,crullets
34,17136,twostep_elicitation,vague,24,0.39,0.31,long teeth,wugs
34,4600,twostep_elicitation,part,25,0.36,0.26,feathers,trufts
34,7697,twostep_elicitation,vague,26,0.5,0.5,rough skin,mooks
34,5879,twostep_elicitation,part,27,0.84,0.89,skin,dorbs
34,4583,twostep_elicitation,accidental,28,0.15,0.2,sore teeth,cheebas
34,6000,twostep_elicitation,color,29,0,0,pink teeth,grinks
35,2581,twostep_elicitation,vague,0,0.7,0.86,rough skin,morseths
35,3030,twostep_elicitation,color,1,0.61,0.74,pink teeth,zorbs
35,2147,twostep_elicitation,color,2,0.78,0.6,violet skin,krivels
35,2798,twostep_elicitation,part,3,0.86,0.72,claws,luzaks
35,2363,twostep_elicitation,vague,4,0.76,0.89,curly fur,cheebas
35,5356,twostep_elicitation,accidental,5,0.7,0.89,wet fur,zoovs
35,2898,twostep_elicitation,color,6,0.69,0.85,blue claws,moxes
35,3005,twostep_elicitation,disease,7,0.66,0.88,rotten teeth,ollers
35,2125,twostep_elicitation,vague,8,0.68,0.87,long legs,mooks
35,2927,twostep_elicitation,accidental,9,0.75,0.91,dusty skin,javs
35,8795,twostep_elicitation,vague,10,0.68,0.88,long tails,trufts
35,2411,twostep_elicitation,color,11,0.58,0.84,orange ears,frams
35,3092,twostep_elicitation,part,12,0.65,0.87,ears,lorches
35,14520,twostep_elicitation,color,13,0.65,0.84,silver legs,pangolins
35,3121,twostep_elicitation,disease,14,0.64,0.82,torn tails,reesles
35,2449,twostep_elicitation,accidental,15,0.89,0.62,sore teeth,glippets
35,2955,twostep_elicitation,disease,16,0.72,0.84,infected ears,taifels
35,3483,twostep_elicitation,vague,17,0.62,0.8,small ears,dorbs
35,2217,twostep_elicitation,part,18,0.7,0.84,legs,daiths
35,2666,twostep_elicitation,color,19,0.87,0.71,yellow fur,kazzes
35,2064,twostep_elicitation,accidental,20,0.83,0.74,cracked claws,feps
35,2164,twostep_elicitation,accidental,21,0.67,0.91,swollen ears,crullets
35,2595,twostep_elicitation,accidental,22,0.68,0.87,muddy feathers,kweps
35,76535,twostep_elicitation,disease,23,0.84,0.69,fungus-covered fur,blins
35,4465,twostep_elicitation,part,24,0.73,0.9,fur,stups
35,2488,twostep_elicitation,disease,25,0.73,0.87,worn-out claws,grinks
35,2549,twostep_elicitation,part,26,0.62,0.79,feathers,elleps
35,2309,twostep_elicitation,vague,27,0.86,0.69,long teeth,sapers
35,2225,twostep_elicitation,part,28,0.89,0.69,skin,thups
35,2805,twostep_elicitation,disease,29,0.91,0.7,torn feathers,wugs
36,58370,twostep_elicitation,vague,0,0.5,0.25,long teeth,blins
36,53440,twostep_elicitation,accidental,1,0.19,0.1,muddy feathers,ackles
36,62103,twostep_elicitation,disease,2,0.09,0.05,fungus-covered fur,cheebas
36,44400,twostep_elicitation,color,3,0.06,0.01,yellow fur,zorbs
36,24104,twostep_elicitation,color,4,0.01,0,orange ears,stups
36,34635,twostep_elicitation,accidental,5,0.26,0.1,cracked claws,morseths
36,48410,twostep_elicitation,vague,6,1,1,curly fur,lorches
36,24159,twostep_elicitation,disease,7,0.09,0.04,burned skin,dorbs
36,57857,twostep_elicitation,vague,8,0.52,0.5,small ears,ollers
36,23872,twostep_elicitation,color,9,0.07,0.03,violet skin,pangolins
36,15820,twostep_elicitation,color,10,0.05,0.03,silver legs,grinks
36,25776,twostep_elicitation,accidental,11,0.52,0.5,dusty skin,moxes
36,22614,twostep_elicitation,color,12,0.06,0.02,blue claws,kweps
36,25832,twostep_elicitation,accidental,13,0.51,0.5,itchy tails,javs
36,24172,twostep_elicitation,part,14,1,1,teeth,thups
36,18302,twostep_elicitation,part,15,1,1,fur,kazzes
36,25123,twostep_elicitation,vague,16,0.52,0.5,rough skin,wugs
36,15951,twostep_elicitation,color,17,0.04,0.01,purple feathers,taifels
36,26318,twostep_elicitation,disease,18,0.3,0.2,infected ears,daiths
36,26202,twostep_elicitation,part,19,1,0.5,feathers,luzaks
36,15909,twostep_elicitation,disease,20,0.13,0.1,rotten teeth,reesles
36,20341,twostep_elicitation,disease,21,0.13,0.1,torn tails,plovs
36,16078,twostep_elicitation,accidental,22,0.14,0.1,sore teeth,elleps
36,30628,twostep_elicitation,disease,23,0.51,0.5,torn feathers,mooks
36,26723,twostep_elicitation,part,24,1,0.5,tails,krivels
36,23303,twostep_elicitation,accidental,25,0.05,0.04,sore legs,zoovs
36,15975,twostep_elicitation,part,26,0.52,0.5,claws,frams
36,25084,twostep_elicitation,vague,27,0.5,0.5,long legs,glippets
36,24598,twostep_elicitation,vague,28,1,0.7,smooth feathers,trufts
36,31639,twostep_elicitation,part,29,1,0.75,skin,crullets
37,42915,twostep_elicitation,color,0,0.38,0.52,pink teeth,plovs
37,7895,twostep_elicitation,accidental,1,0.43,0.34,cracked claws,zoovs
37,8391,twostep_elicitation,accidental,2,0.53,0.67,muddy feathers,kweps
37,13526,twostep_elicitation,accidental,3,0.76,0.4,dusty skin,dorbs
37,8258,twostep_elicitation,disease,4,0.13,0.1,broken legs,feps
37,21322,twostep_elicitation,color,5,0.68,0.52,violet skin,frams
37,32807,twostep_elicitation,accidental,6,0.8,0.3,sore legs,blins
37,10151,twostep_elicitation,color,7,0.42,0.23,blue claws,reesles
37,7920,twostep_elicitation,part,8,0.86,0.98,ears,pangolins
37,6282,twostep_elicitation,part,9,0.99,0.99,legs,trufts
37,11660,twostep_elicitation,vague,10,0.8,0.71,smooth feathers,glippets
37,7993,twostep_elicitation,color,11,0.68,0.61,silver legs,sapers
37,15842,twostep_elicitation,disease,12,0.13,0.04,burned skin,cheebas
37,5664,twostep_elicitation,part,13,0.98,0.98,teeth,javs
37,8198,twostep_elicitation,disease,14,0.25,0.13,fungus-covered fur,taifels
37,7686,twostep_elicitation,vague,15,0.79,0.59,big claws,lorches
37,6659,twostep_elicitation,color,16,0.77,0.72,orange ears,wugs
37,5713,twostep_elicitation,part,17,0.98,0.98,tails,ackles
37,15230,twostep_elicitation,disease,18,0.32,0.14,torn feathers,zorbs
37,40224,twostep_elicitation,accidental,19,0.78,0.8,wet fur,daiths
37,3949,twostep_elicitation,part,20,0.98,0.98,claws,elleps
37,5235,twostep_elicitation,color,21,0.59,0.42,yellow fur,luzaks
37,6474,twostep_elicitation,accidental,22,0.49,0.18,swollen ears,stups
37,6590,twostep_elicitation,vague,23,0.81,0.41,long legs,morseths
37,9000,twostep_elicitation,disease,24,0.28,0.06,infected ears,grinks
37,4204,twostep_elicitation,disease,25,0.34,0.09,rotten teeth,moxes
37,4934,twostep_elicitation,vague,26,0.62,0.43,curly fur,krivels
37,6424,twostep_elicitation,part,27,0.97,0.97,feathers,ollers
37,8795,twostep_elicitation,vague,28,0.75,0.55,rough skin,thups
37,3109,twostep_elicitation,vague,29,0.78,0.64,long tails,crullets
38,35952,twostep_elicitation,disease,0,0.14,0.05,infected ears,mooks
38,30799,twostep_elicitation,disease,1,0.18,0.1,rotten teeth,moxes
38,31703,twostep_elicitation,accidental,2,0.14,0.04,sore teeth,glippets
38,30152,twostep_elicitation,part,3,0.68,1,legs,reesles
38,20888,twostep_elicitation,part,4,0.54,0.96,fur,morseths
38,32826,twostep_elicitation,vague,5,0.52,0.45,big claws,dorbs
38,29757,twostep_elicitation,accidental,6,0.22,0.01,muddy feathers,feps
38,35217,twostep_elicitation,color,7,0.08,1,pink teeth,grinks
38,29886,twostep_elicitation,disease,8,0.27,0.06,torn tails,daiths
38,9800,twostep_elicitation,part,9,0.77,1,ears,blins
38,40597,twostep_elicitation,color,10,0.26,0.3,blue claws,frams
38,17466,twostep_elicitation,disease,11,0.5,0.1,torn feathers,zorbs
38,21705,twostep_elicitation,vague,12,0.52,0.8,long tails,kweps
38,11310,twostep_elicitation,accidental,13,0.11,0.05,itchy tails,zoovs
38,25247,twostep_elicitation,color,14,0.3,0.3,orange tails,thups
38,19313,twostep_elicitation,part,15,0.51,0.98,tails,trufts
38,10920,twostep_elicitation,part,16,0.51,1,feathers,kazzes
38,12834,twostep_elicitation,part,17,1,1,skin,stups
38,12460,twostep_elicitation,vague,18,0.51,0.9,long legs,krivels
38,34488,twostep_elicitation,color,19,0.39,0.3,purple feathers,lorches
38,54727,twostep_elicitation,accidental,20,0.5,0.05,sore legs,pangolins
38,10711,twostep_elicitation,vague,21,0.5,0.8,small ears,plovs
38,14985,twostep_elicitation,color,22,0.5,0.5,yellow fur,taifels
38,18863,twostep_elicitation,vague,23,0.52,0.9,long teeth,cheebas
38,11018,twostep_elicitation,vague,24,0.5,1,rough skin,crullets
38,8645,twostep_elicitation,color,25,0.49,0.65,orange ears,ollers
38,15818,twostep_elicitation,disease,26,0.16,0.01,burned skin,javs
38,12462,twostep_elicitation,accidental,27,0.29,0.06,dusty skin,elleps
38,24961,twostep_elicitation,accidental,28,0.64,0.1,cracked claws,wugs
38,13214,twostep_elicitation,disease,29,0.29,0.03,fungus-covered fur,ackles
39,16236,twostep_elicitation,accidental,0,0.21,0.21,wet fur,stups
39,18903,twostep_elicitation,vague,1,0.05,1,curly fur,moxes
39,9047,twostep_elicitation,disease,2,0.85,0.14,rotten teeth,crullets
39,12339,twostep_elicitation,color,3,0,1,pink teeth,sapers
39,8363,twostep_elicitation,disease,4,1,0.13,torn feathers,elleps
39,11177,twostep_elicitation,color,5,0.15,0.91,orange tails,kweps
39,8422,twostep_elicitation,part,6,0.8,1,fur,plovs
39,8405,twostep_elicitation,disease,7,0.08,0.41,fungus-covered fur,feps
39,7650,twostep_elicitation,accidental,8,0.63,0.27,sore teeth,pangolins
39,8894,twostep_elicitation,color,9,0,1,violet skin,javs
39,9052,twostep_elicitation,color,10,0.26,1,yellow fur,wugs
39,13342,twostep_elicitation,color,11,0,1,silver legs,mooks
39,11624,twostep_elicitation,accidental,12,0.19,0.73,itchy tails,zoovs
39,7687,twostep_elicitation,vague,13,0.4,1,long teeth,glippets
39,8682,twostep_elicitation,color,14,0.16,1,purple feathers,reesles
39,12238,twostep_elicitation,accidental,15,0.16,0.17,sore legs,frams
39,8057,twostep_elicitation,vague,16,0.53,1,rough skin,grinks
39,10407,twostep_elicitation,vague,17,0.21,1,smooth feathers,thups
39,6873,twostep_elicitation,accidental,18,0.1,0.04,muddy feathers,luzaks
39,11087,twostep_elicitation,part,19,0.81,1,claws,trufts
39,3488,twostep_elicitation,vague,20,0.44,1,long legs,morseths
39,8024,twostep_elicitation,disease,21,1,0.08,worn-out claws,blins
39,4640,twostep_elicitation,part,22,0.68,1,tails,zorbs
39,5412,twostep_elicitation,part,23,0.54,1,feathers,kazzes
39,5955,twostep_elicitation,accidental,24,0.04,0.03,swollen ears,lorches
39,5768,twostep_elicitation,part,25,1,1,ears,dorbs
39,3793,twostep_elicitation,vague,26,0.59,1,small ears,krivels
39,10495,twostep_elicitation,disease,27,1,0.11,torn tails,cheebas
39,3648,twostep_elicitation,part,28,1,1,legs,ackles
39,6560,twostep_elicitation,disease,29,0.04,0.01,burned skin,taifels
