workerid,rt,trial_type,stim_type,trial_num,stim_determiner,stim_property,response,stim_category
0,2041,implied_prevalence,part,0,generic,legs,0.6,ollers
0,8076,implied_prevalence,part,1,generic,ears,0.97,moxes
0,2873,implied_prevalence,disease,2,generic,rotten teeth,0.52,trufts
0,2290,implied_prevalence,accidental,3,generic,sore legs,0.86,kazzes
0,4202,implied_prevalence,color,4,generic,orange ears,0.98,dorbs
0,4681,implied_prevalence,part,5,generic,tails,0.98,kweps
0,12577,implied_prevalence,color,6,generic,blue claws,0.78,stups
0,2330,implied_prevalence,disease,7,generic,worn-out claws,0.96,pangolins
0,1678,implied_prevalence,accidental,8,generic,wet fur,0.6,ackles
0,1648,implied_prevalence,color,9,generic,violet skin,0.86,grinks
0,2164,implied_prevalence,disease,10,generic,infected ears,0.95,elleps
0,8666,implied_prevalence,disease,11,generic,torn feathers,0.6,lorches
0,2056,implied_prevalence,vague,12,generic,small ears,0.85,sapers
0,2973,implied_prevalence,color,13,generic,silver legs,0.9,cheebas
0,3081,implied_prevalence,color,14,generic,orange tails,0.98,zoovs
0,1730,implied_prevalence,part,15,generic,feathers,0.87,plovs
0,1838,implied_prevalence,part,16,generic,claws,0.96,blins
0,1733,implied_prevalence,vague,17,generic,long legs,0.77,javs
0,1578,implied_prevalence,accidental,18,generic,sore teeth,0.94,luzaks
0,1436,implied_prevalence,vague,19,generic,long teeth,0.67,crullets
0,1398,implied_prevalence,vague,20,generic,rough skin,0.88,mooks
0,1626,implied_prevalence,color,21,generic,pink teeth,0.58,morseths
0,4718,implied_prevalence,part,22,generic,teeth,0.87,thups
0,2915,implied_prevalence,accidental,23,generic,swollen ears,0.94,krivels
0,1286,implied_prevalence,accidental,24,generic,muddy feathers,0.62,wugs
0,1954,implied_prevalence,vague,25,generic,curly fur,0.51,feps
0,1575,implied_prevalence,disease,26,generic,broken legs,0.73,zorbs
0,1281,implied_prevalence,accidental,27,generic,cracked claws,0.86,glippets
0,1609,implied_prevalence,vague,28,generic,long tails,0.63,daiths
0,1571,implied_prevalence,disease,29,generic,fungus-covered fur,0.86,taifels
1,4078,implied_prevalence,part,0,generic,ears,1,morseths
1,4745,implied_prevalence,vague,1,generic,long legs,0.62,zorbs
1,2053,implied_prevalence,vague,2,generic,small ears,0.34,elleps
1,2023,implied_prevalence,part,3,generic,teeth,1,taifels
1,2206,implied_prevalence,vague,4,generic,smooth feathers,0.46,moxes
1,2647,implied_prevalence,color,5,generic,violet skin,0.51,kweps
1,1493,implied_prevalence,accidental,6,generic,dusty skin,0.16,blins
1,1583,implied_prevalence,vague,7,generic,rough skin,0.21,luzaks
1,1925,implied_prevalence,disease,8,generic,burned skin,0.08,grinks
1,2508,implied_prevalence,part,9,generic,tails,1,sapers
1,2076,implied_prevalence,disease,10,generic,rotten teeth,0.37,dorbs
1,2302,implied_prevalence,accidental,11,generic,wet fur,0.72,javs
1,1713,implied_prevalence,part,12,generic,fur,0.81,mooks
1,3699,implied_prevalence,color,13,generic,yellow fur,0.51,feps
1,1849,implied_prevalence,accidental,14,generic,sore teeth,0.22,glippets
1,1658,implied_prevalence,color,15,generic,silver legs,0.16,pangolins
1,1651,implied_prevalence,accidental,16,generic,cracked claws,0.12,wugs
1,1377,implied_prevalence,part,17,generic,feathers,0.72,ollers
1,2471,implied_prevalence,color,18,generic,orange tails,0.09,kazzes
1,4822,implied_prevalence,accidental,19,generic,swollen ears,0.11,cheebas
1,3473,implied_prevalence,color,20,generic,purple feathers,0.11,plovs
1,1889,implied_prevalence,color,21,generic,pink teeth,0.08,krivels
1,1396,implied_prevalence,part,22,generic,claws,0.57,zoovs
1,1695,implied_prevalence,disease,23,generic,broken legs,0.04,thups
1,1561,implied_prevalence,disease,24,generic,worn-out claws,0.06,reesles
1,1412,implied_prevalence,accidental,25,generic,itchy tails,0.14,lorches
1,1693,implied_prevalence,vague,26,generic,curly fur,0.48,stups
1,1499,implied_prevalence,disease,27,generic,torn tails,0.1,crullets
1,1748,implied_prevalence,disease,28,generic,fungus-covered fur,0.08,trufts
1,1698,implied_prevalence,vague,29,generic,big claws,0.6,daiths
2,9216,implied_prevalence,accidental,0,generic,sore legs,1,taifels
2,5038,implied_prevalence,color,1,generic,violet skin,0.99,mooks
2,5229,implied_prevalence,vague,2,generic,smooth feathers,1,dorbs
2,4007,implied_prevalence,part,3,generic,tails,1,sapers
2,6357,implied_prevalence,accidental,4,generic,dusty skin,0.95,pangolins
2,4334,implied_prevalence,part,5,generic,claws,0.95,thups
2,5068,implied_prevalence,color,6,generic,purple feathers,1,kweps
2,6281,implied_prevalence,disease,7,generic,infected ears,0.84,blins
2,4153,implied_prevalence,color,8,generic,silver legs,0.9,kazzes
2,7996,implied_prevalence,disease,9,generic,burned skin,0.8,elleps
2,4671,implied_prevalence,vague,10,generic,rough skin,0.8,feps
2,7501,implied_prevalence,accidental,11,generic,wet fur,0.69,glippets
2,6989,implied_prevalence,accidental,12,generic,sore teeth,0.75,luzaks
2,6112,implied_prevalence,accidental,13,generic,itchy tails,0.7,stups
2,5281,implied_prevalence,part,14,generic,teeth,1,ollers
2,6479,implied_prevalence,vague,15,generic,big claws,0.8,moxes
2,5693,implied_prevalence,disease,16,generic,fungus-covered fur,0.59,javs
2,4288,implied_prevalence,disease,17,generic,rotten teeth,0.75,daiths
2,6809,implied_prevalence,color,18,generic,orange tails,0.9,lorches
2,2839,implied_prevalence,part,19,generic,legs,1,trufts
2,4986,implied_prevalence,disease,20,generic,torn tails,0.49,ackles
2,6349,implied_prevalence,accidental,21,generic,swollen ears,0.65,krivels
2,5521,implied_prevalence,part,22,generic,feathers,0.84,morseths
2,4194,implied_prevalence,color,23,generic,blue claws,0.95,zoovs
2,2490,implied_prevalence,part,24,generic,skin,1,frams
2,3561,implied_prevalence,vague,25,generic,long teeth,0.94,crullets
2,4216,implied_prevalence,vague,26,generic,small ears,0.81,reesles
2,4950,implied_prevalence,vague,27,generic,long legs,0.9,plovs
2,4482,implied_prevalence,disease,28,generic,worn-out claws,0.5,cheebas
2,7652,implied_prevalence,color,29,generic,pink teeth,0.41,grinks
3,6354,implied_prevalence,color,0,generic,pink teeth,1,lorches
3,9193,implied_prevalence,accidental,1,generic,swollen ears,0.83,krivels
3,6161,implied_prevalence,color,2,generic,yellow fur,0.53,plovs
3,3441,implied_prevalence,accidental,3,generic,sore teeth,0.72,zoovs
3,7820,implied_prevalence,vague,4,generic,smooth feathers,0.52,grinks
3,2466,implied_prevalence,accidental,5,generic,dusty skin,0.29,glippets
3,4868,implied_prevalence,part,6,generic,teeth,0.81,luzaks
3,9359,implied_prevalence,accidental,7,generic,cracked claws,0.12,feps
3,2778,implied_prevalence,disease,8,generic,infected ears,0.4,ackles
3,5171,implied_prevalence,disease,9,generic,rotten teeth,0.18,daiths
3,5268,implied_prevalence,vague,10,generic,rough skin,0.59,pangolins
3,4659,implied_prevalence,color,11,generic,purple feathers,0.7,crullets
3,62793,implied_prevalence,vague,12,generic,curly fur,0.85,kweps
3,5962,implied_prevalence,part,13,generic,feathers,0.68,sapers
3,8658,implied_prevalence,color,14,generic,silver legs,0.87,morseths
3,3486,implied_prevalence,disease,15,generic,burned skin,0.72,kazzes
3,3714,implied_prevalence,disease,16,generic,fungus-covered fur,0.19,elleps
3,4080,implied_prevalence,color,17,generic,blue claws,0.98,mooks
3,2442,implied_prevalence,vague,18,generic,small ears,0.62,ollers
3,1736,implied_prevalence,color,19,generic,orange ears,0.41,blins
3,4132,implied_prevalence,disease,20,generic,broken legs,0.04,reesles
3,5742,implied_prevalence,accidental,21,generic,itchy tails,0.32,zorbs
3,3142,implied_prevalence,vague,22,generic,long tails,0.68,frams
3,3250,implied_prevalence,accidental,23,generic,sore legs,0.92,cheebas
3,4762,implied_prevalence,part,24,generic,skin,1,taifels
3,2584,implied_prevalence,vague,25,generic,big claws,0.57,moxes
3,2465,implied_prevalence,part,26,generic,tails,0.05,javs
3,3276,implied_prevalence,part,27,generic,ears,0.98,wugs
3,4035,implied_prevalence,disease,28,generic,torn tails,0.32,thups
3,2590,implied_prevalence,part,29,generic,fur,0.62,dorbs
4,6863,implied_prevalence,part,0,generic,fur,0.91,glippets
4,4568,implied_prevalence,color,1,generic,purple feathers,0.84,feps
4,4047,implied_prevalence,vague,2,generic,smooth feathers,0.85,krivels
4,2608,implied_prevalence,color,3,generic,pink teeth,0.76,thups
4,3168,implied_prevalence,accidental,4,generic,dusty skin,0.77,zoovs
4,2135,implied_prevalence,vague,5,generic,rough skin,0.86,wugs
4,41471,implied_prevalence,part,6,generic,skin,0.75,stups
4,2976,implied_prevalence,color,7,generic,yellow fur,0.88,javs
4,3975,implied_prevalence,accidental,8,generic,itchy tails,0.75,elleps
4,3377,implied_prevalence,accidental,9,generic,muddy feathers,0.8,morseths
4,1784,implied_prevalence,color,10,generic,orange tails,0.82,trufts
4,3048,implied_prevalence,disease,11,generic,rotten teeth,0.94,kazzes
4,3407,implied_prevalence,disease,12,generic,infected ears,0.54,crullets
4,2145,implied_prevalence,color,13,generic,silver legs,0.64,pangolins
4,3336,implied_prevalence,vague,14,generic,long teeth,0.74,daiths
4,2879,implied_prevalence,part,15,generic,ears,0.96,cheebas
4,2072,implied_prevalence,part,16,generic,claws,0.95,frams
4,2489,implied_prevalence,accidental,17,generic,wet fur,0.53,dorbs
4,1951,implied_prevalence,color,18,generic,violet skin,0.6,plovs
4,2647,implied_prevalence,disease,19,generic,torn feathers,0.5,taifels
4,2007,implied_prevalence,vague,20,generic,long legs,0.88,blins
4,1280,implied_prevalence,part,21,generic,tails,0.87,grinks
4,1488,implied_prevalence,vague,22,generic,curly fur,0.87,lorches
4,2496,implied_prevalence,accidental,23,generic,swollen ears,0.71,reesles
4,1384,implied_prevalence,disease,24,generic,worn-out claws,0.86,zorbs
4,1352,implied_prevalence,disease,25,generic,torn tails,0.89,luzaks
4,1640,implied_prevalence,disease,26,generic,fungus-covered fur,0.89,ollers
4,11103,implied_prevalence,part,27,generic,teeth,0.9,kweps
4,27040,implied_prevalence,vague,28,generic,small ears,0.89,ackles
4,1519,implied_prevalence,accidental,29,generic,sore legs,0.79,sapers
5,5540,implied_prevalence,vague,0,generic,rough skin,0.49,reesles
5,2480,implied_prevalence,color,1,generic,purple feathers,0.37,lorches
5,2446,implied_prevalence,disease,2,generic,torn tails,0.6,zoovs
5,1775,implied_prevalence,part,3,generic,skin,0.39,moxes
5,1567,implied_prevalence,color,4,generic,yellow fur,0.49,taifels
5,2815,implied_prevalence,part,5,generic,legs,0.65,crullets
5,1727,implied_prevalence,color,6,generic,orange ears,0.68,elleps
5,1463,implied_prevalence,vague,7,generic,long tails,0.5,frams
5,1560,implied_prevalence,disease,8,generic,torn feathers,0.3,cheebas
5,2023,implied_prevalence,vague,9,generic,long legs,0.44,blins
5,1304,implied_prevalence,part,10,generic,claws,0.54,luzaks
5,1282,implied_prevalence,disease,11,generic,worn-out claws,0.62,plovs
5,1885,implied_prevalence,disease,12,generic,infected ears,0.45,feps
5,1521,implied_prevalence,vague,13,generic,smooth feathers,0.38,trufts
5,1230,implied_prevalence,accidental,14,generic,dusty skin,0.59,kazzes
5,1223,implied_prevalence,color,15,generic,blue claws,0.7,mooks
5,1271,implied_prevalence,color,16,generic,orange tails,0.48,morseths
5,1407,implied_prevalence,vague,17,generic,big claws,0.38,ackles
5,1264,implied_prevalence,accidental,18,generic,sore legs,0.54,pangolins
5,1256,implied_prevalence,part,19,generic,ears,0.46,sapers
5,1239,implied_prevalence,part,20,generic,feathers,0.38,ollers
5,1271,implied_prevalence,accidental,21,generic,wet fur,0.54,glippets
5,1072,implied_prevalence,accidental,22,generic,itchy tails,0.41,grinks
5,1255,implied_prevalence,accidental,23,generic,muddy feathers,0.48,wugs
5,1543,implied_prevalence,part,24,generic,tails,0.39,zorbs
5,1160,implied_prevalence,disease,25,generic,burned skin,0.51,stups
5,1215,implied_prevalence,color,26,generic,silver legs,0.59,dorbs
5,1143,implied_prevalence,accidental,27,generic,cracked claws,0.5,daiths
5,1279,implied_prevalence,disease,28,generic,fungus-covered fur,0.44,thups
5,1359,implied_prevalence,vague,29,generic,curly fur,0.52,krivels
6,4533,implied_prevalence,color,0,generic,yellow fur,0.67,mooks
6,4675,implied_prevalence,disease,1,generic,torn feathers,1,crullets
6,3572,implied_prevalence,disease,2,generic,torn tails,1,zoovs
6,2955,implied_prevalence,color,3,generic,orange tails,0.89,lorches
6,2552,implied_prevalence,part,4,generic,feathers,1,feps
6,2152,implied_prevalence,vague,5,generic,smooth feathers,0.95,plovs
6,2205,implied_prevalence,disease,6,generic,infected ears,0.92,taifels
6,3787,implied_prevalence,vague,7,generic,long teeth,1,kazzes
6,2454,implied_prevalence,color,8,generic,pink teeth,1,elleps
6,3072,implied_prevalence,accidental,9,generic,swollen ears,0.96,glippets
6,1982,implied_prevalence,accidental,10,generic,cracked claws,0.94,stups
6,2578,implied_prevalence,vague,11,generic,curly fur,0.93,grinks
6,4063,implied_prevalence,color,12,generic,silver legs,0.99,luzaks
6,3114,implied_prevalence,accidental,13,generic,wet fur,0.83,dorbs
6,2327,implied_prevalence,disease,14,generic,burned skin,0.8,blins
6,1841,implied_prevalence,vague,15,generic,big claws,0.8,zorbs
6,1868,implied_prevalence,accidental,16,generic,dusty skin,0.95,ollers
6,2012,implied_prevalence,disease,17,generic,broken legs,0.94,daiths
6,2433,implied_prevalence,part,18,generic,ears,1,cheebas
6,3185,implied_prevalence,part,19,generic,skin,1,thups
6,1662,implied_prevalence,vague,20,generic,rough skin,0.94,ackles
6,1396,implied_prevalence,color,21,generic,purple feathers,0.87,trufts
6,2172,implied_prevalence,part,22,generic,fur,0.84,kweps
6,2172,implied_prevalence,accidental,23,generic,itchy tails,0.9,morseths
6,27856,implied_prevalence,accidental,24,generic,sore legs,0.98,reesles
6,1533,implied_prevalence,part,25,generic,tails,0.96,pangolins
6,1267,implied_prevalence,part,26,generic,claws,0.85,wugs
6,1717,implied_prevalence,color,27,generic,violet skin,0.9,sapers
6,1592,implied_prevalence,disease,28,generic,rotten teeth,0.92,moxes
6,1497,implied_prevalence,vague,29,generic,long legs,0.92,frams
7,12016,implied_prevalence,disease,0,generic,fungus-covered fur,0.9,reesles
7,8631,implied_prevalence,disease,1,generic,infected ears,0.15,javs
7,5666,implied_prevalence,color,2,generic,purple feathers,1,dorbs
7,5696,implied_prevalence,accidental,3,generic,sore teeth,0.06,mooks
7,4040,implied_prevalence,vague,4,generic,smooth feathers,1,stups
7,4423,implied_prevalence,accidental,5,generic,cracked claws,0.21,frams
7,3505,implied_prevalence,part,6,generic,legs,1,trufts
7,8457,implied_prevalence,color,7,generic,orange tails,0.97,moxes
7,6216,implied_prevalence,color,8,generic,pink teeth,0.65,ollers
7,6122,implied_prevalence,accidental,9,generic,dusty skin,0.67,morseths
7,4495,implied_prevalence,color,10,generic,blue claws,0.87,grinks
7,2877,implied_prevalence,part,11,generic,fur,1,wugs
7,4163,implied_prevalence,accidental,12,generic,swollen ears,0.06,glippets
7,11266,implied_prevalence,vague,13,generic,long legs,0.79,kazzes
7,10302,implied_prevalence,part,14,generic,tails,1,luzaks
7,8632,implied_prevalence,accidental,15,generic,sore legs,0.04,zoovs
7,7210,implied_prevalence,disease,16,generic,torn tails,0.11,krivels
7,5624,implied_prevalence,vague,17,generic,long teeth,0.86,sapers
7,2439,implied_prevalence,part,18,generic,claws,1,zorbs
7,5695,implied_prevalence,accidental,19,generic,wet fur,0.16,taifels
7,3010,implied_prevalence,color,20,generic,violet skin,0.94,elleps
7,6238,implied_prevalence,disease,21,generic,torn feathers,0.1,thups
7,3826,implied_prevalence,vague,22,generic,long tails,0.89,daiths
7,4344,implied_prevalence,disease,23,generic,broken legs,0.01,plovs
7,5755,implied_prevalence,part,24,generic,teeth,1,kweps
7,2784,implied_prevalence,part,25,generic,skin,1,ackles
7,4559,implied_prevalence,vague,26,generic,small ears,0.8,lorches
7,3345,implied_prevalence,vague,27,generic,rough skin,0.84,pangolins
7,2968,implied_prevalence,disease,28,generic,burned skin,0.1,blins
7,2993,implied_prevalence,color,29,generic,orange ears,0.93,crullets
8,7324,implied_prevalence,disease,0,generic,fungus-covered fur,0.97,taifels
8,3614,implied_prevalence,color,1,generic,silver legs,0.81,mooks
8,6147,implied_prevalence,color,2,generic,blue claws,0.81,zorbs
8,7081,implied_prevalence,part,3,generic,legs,1,ollers
8,6091,implied_prevalence,vague,4,generic,long legs,0.97,dorbs
8,5302,implied_prevalence,color,5,generic,pink teeth,0.95,stups
8,4073,implied_prevalence,vague,6,generic,rough skin,1,wugs
8,3886,implied_prevalence,color,7,generic,orange ears,0.82,moxes
8,8215,implied_prevalence,accidental,8,generic,sore teeth,0.64,grinks
8,4352,implied_prevalence,vague,9,generic,smooth feathers,1,elleps
8,7317,implied_prevalence,disease,10,generic,worn-out claws,0.76,daiths
8,5922,implied_prevalence,disease,11,generic,infected ears,0.27,kazzes
8,5334,implied_prevalence,color,12,generic,orange tails,0.76,krivels
8,6077,implied_prevalence,accidental,13,generic,wet fur,0.86,lorches
8,4586,implied_prevalence,part,14,generic,claws,0.98,sapers
8,6655,implied_prevalence,accidental,15,generic,muddy feathers,0.66,javs
8,8121,implied_prevalence,vague,16,generic,long teeth,0.79,plovs
8,6191,implied_prevalence,part,17,generic,skin,1,cheebas
8,4102,implied_prevalence,part,18,generic,ears,1,zoovs
8,5999,implied_prevalence,disease,19,generic,broken legs,0.09,ackles
8,4131,implied_prevalence,disease,20,generic,rotten teeth,0.27,blins
8,4224,implied_prevalence,vague,21,generic,long tails,0.95,morseths
8,4834,implied_prevalence,part,22,generic,teeth,0.87,reesles
8,8326,implied_prevalence,accidental,23,generic,dusty skin,0.91,thups
8,4209,implied_prevalence,accidental,24,generic,sore legs,0.22,frams
8,5240,implied_prevalence,accidental,25,generic,itchy tails,0.7,glippets
8,3764,implied_prevalence,vague,26,generic,small ears,0.98,feps
8,4643,implied_prevalence,disease,27,generic,torn tails,0.26,trufts
8,4567,implied_prevalence,part,28,generic,feathers,1,kweps
8,3323,implied_prevalence,color,29,generic,yellow fur,0.88,luzaks
9,8500,implied_prevalence,color,0,generic,silver legs,0,wugs
9,11183,implied_prevalence,color,1,generic,blue claws,1,ollers
9,5383,implied_prevalence,vague,2,generic,rough skin,1,kweps
9,3332,implied_prevalence,accidental,3,generic,wet fur,1,dorbs
9,4368,implied_prevalence,color,4,generic,purple feathers,1,zoovs
9,3335,implied_prevalence,accidental,5,generic,swollen ears,1,sapers
9,4376,implied_prevalence,disease,6,generic,burned skin,1,frams
9,2680,implied_prevalence,part,7,generic,tails,1,javs
9,2625,implied_prevalence,part,8,generic,skin,1,reesles
9,2235,implied_prevalence,part,9,generic,teeth,1,zorbs
9,1733,implied_prevalence,vague,10,generic,smooth feathers,1,krivels
9,2049,implied_prevalence,vague,11,generic,long teeth,1,daiths
9,2133,implied_prevalence,vague,12,generic,small ears,1,grinks
9,1742,implied_prevalence,accidental,13,generic,sore teeth,1,feps
9,1419,implied_prevalence,accidental,14,generic,itchy tails,1,moxes
9,2022,implied_prevalence,accidental,15,generic,cracked claws,1,glippets
9,1635,implied_prevalence,color,16,generic,violet skin,1,lorches
9,2416,implied_prevalence,part,17,generic,feathers,1,mooks
9,2903,implied_prevalence,part,18,generic,fur,1,blins
9,2076,implied_prevalence,color,19,generic,orange tails,1,thups
9,1571,implied_prevalence,color,20,generic,pink teeth,1,ackles
9,1233,implied_prevalence,vague,21,generic,long tails,1,luzaks
9,1779,implied_prevalence,disease,22,generic,infected ears,1,crullets
9,1368,implied_prevalence,vague,23,generic,big claws,1,taifels
9,3553,implied_prevalence,disease,24,generic,worn-out claws,1,stups
9,68912,implied_prevalence,part,25,generic,claws,1,pangolins
9,2121,implied_prevalence,accidental,26,generic,dusty skin,1,cheebas
9,7933,implied_prevalence,disease,27,generic,fungus-covered fur,1,elleps
9,2077,implied_prevalence,disease,28,generic,rotten teeth,1,trufts
9,2359,implied_prevalence,disease,29,generic,torn feathers,1,morseths
10,10323,implied_prevalence,vague,0,generic,big claws,0.83,thups
10,4902,implied_prevalence,accidental,1,generic,itchy tails,0.82,zoovs
10,4000,implied_prevalence,color,2,generic,silver legs,0.75,blins
10,4693,implied_prevalence,disease,3,generic,torn tails,0.91,taifels
10,6398,implied_prevalence,disease,4,generic,broken legs,0.37,wugs
10,2684,implied_prevalence,vague,5,generic,long tails,0.94,mooks
10,3199,implied_prevalence,vague,6,generic,curly fur,0.87,cheebas
10,2914,implied_prevalence,accidental,7,generic,swollen ears,0.69,stups
10,2951,implied_prevalence,accidental,8,generic,dusty skin,0.85,elleps
10,3513,implied_prevalence,accidental,9,generic,muddy feathers,0.47,zorbs
10,2390,implied_prevalence,color,10,generic,purple feathers,0.8,grinks
10,2941,implied_prevalence,part,11,generic,ears,0.99,luzaks
10,3056,implied_prevalence,part,12,generic,teeth,0.97,glippets
10,2962,implied_prevalence,accidental,13,generic,sore legs,0.32,ackles
10,1941,implied_prevalence,color,14,generic,orange ears,0.88,morseths
10,1837,implied_prevalence,accidental,15,generic,cracked claws,0.82,kweps
10,2065,implied_prevalence,vague,16,generic,smooth feathers,0.82,crullets
10,3600,implied_prevalence,disease,17,generic,burned skin,0.63,feps
10,2951,implied_prevalence,disease,18,generic,infected ears,0.35,frams
10,2532,implied_prevalence,part,19,generic,feathers,0.98,lorches
10,2750,implied_prevalence,disease,20,generic,worn-out claws,0.7,daiths
10,2581,implied_prevalence,color,21,generic,orange tails,0.8,reesles
10,2275,implied_prevalence,color,22,generic,blue claws,0.81,ollers
10,7303,implied_prevalence,disease,23,generic,rotten teeth,0.58,trufts
10,2389,implied_prevalence,color,24,generic,yellow fur,0.84,sapers
10,2675,implied_prevalence,part,25,generic,legs,0.98,javs
10,2380,implied_prevalence,part,26,generic,fur,0.96,krivels
10,4218,implied_prevalence,vague,27,generic,long legs,0.83,kazzes
10,1752,implied_prevalence,part,28,generic,claws,0.95,moxes
10,2818,implied_prevalence,vague,29,generic,rough skin,0.79,pangolins
11,5940,implied_prevalence,part,0,generic,claws,0.94,frams
11,3910,implied_prevalence,accidental,1,generic,dusty skin,0.5,blins
11,3731,implied_prevalence,disease,2,generic,worn-out claws,0.3,cheebas
11,3806,implied_prevalence,vague,3,generic,long tails,0.81,glippets
11,10256,implied_prevalence,color,4,generic,purple feathers,0.62,thups
11,3959,implied_prevalence,part,5,generic,skin,0.97,feps
11,4135,implied_prevalence,accidental,6,generic,muddy feathers,0.26,trufts
11,4915,implied_prevalence,vague,7,generic,long legs,0.97,morseths
11,5651,implied_prevalence,color,8,generic,orange tails,0.46,javs
11,3859,implied_prevalence,color,9,generic,blue claws,0.73,pangolins
11,3011,implied_prevalence,disease,10,generic,torn feathers,0.19,luzaks
11,2647,implied_prevalence,accidental,11,generic,itchy tails,0.26,krivels
11,2831,implied_prevalence,disease,12,generic,torn tails,0.39,kazzes
11,4739,implied_prevalence,disease,13,generic,fungus-covered fur,0.22,elleps
11,3595,implied_prevalence,vague,14,generic,small ears,0.81,stups
11,3984,implied_prevalence,accidental,15,generic,sore teeth,0.19,plovs
11,2387,implied_prevalence,vague,16,generic,rough skin,0.73,reesles
11,3082,implied_prevalence,accidental,17,generic,swollen ears,0.32,daiths
11,3641,implied_prevalence,color,18,generic,orange ears,0.6,ackles
11,2840,implied_prevalence,disease,19,generic,broken legs,0.05,taifels
11,3564,implied_prevalence,part,20,generic,teeth,0.99,dorbs
11,2681,implied_prevalence,part,21,generic,tails,0.98,zoovs
11,3047,implied_prevalence,vague,22,generic,smooth feathers,0.83,wugs
11,3534,implied_prevalence,color,23,generic,violet skin,0.41,crullets
11,4000,implied_prevalence,disease,24,generic,infected ears,0.07,ollers
11,4597,implied_prevalence,accidental,25,generic,sore legs,0.15,sapers
11,3485,implied_prevalence,part,26,generic,fur,0.87,zorbs
11,4230,implied_prevalence,vague,27,generic,curly fur,0.29,grinks
11,2984,implied_prevalence,color,28,generic,silver legs,0.66,moxes
11,2808,implied_prevalence,part,29,generic,feathers,0.97,kweps
12,11837,implied_prevalence,accidental,0,generic,sore teeth,0.9,morseths
12,4129,implied_prevalence,accidental,1,generic,sore legs,0.9,mooks
12,4151,implied_prevalence,color,2,generic,violet skin,1,taifels
12,6770,implied_prevalence,disease,3,generic,broken legs,0.2,luzaks
12,2619,implied_prevalence,part,4,generic,skin,1,zorbs
12,4157,implied_prevalence,accidental,5,generic,dusty skin,1,kazzes
12,3160,implied_prevalence,color,6,generic,silver legs,1,dorbs
12,2740,implied_prevalence,color,7,generic,orange tails,1,reesles
12,2492,implied_prevalence,part,8,generic,legs,1,stups
12,6603,implied_prevalence,accidental,9,generic,wet fur,0.75,daiths
12,3670,implied_prevalence,disease,10,generic,infected ears,0.2,blins
12,2451,implied_prevalence,vague,11,generic,long teeth,1,crullets
12,2481,implied_prevalence,part,12,generic,claws,1,sapers
12,2329,implied_prevalence,part,13,generic,tails,1,plovs
12,2342,implied_prevalence,vague,14,generic,big claws,1,grinks
12,3180,implied_prevalence,disease,15,generic,rotten teeth,0.8,trufts
12,6701,implied_prevalence,disease,16,generic,burned skin,0.9,ackles
12,2254,implied_prevalence,vague,17,generic,small ears,1,ollers
12,3752,implied_prevalence,accidental,18,generic,cracked claws,0.93,cheebas
12,5547,implied_prevalence,disease,19,generic,fungus-covered fur,0.94,zoovs
12,2800,implied_prevalence,color,20,generic,pink teeth,1,javs
12,2809,implied_prevalence,vague,21,generic,curly fur,1,krivels
12,2469,implied_prevalence,color,22,generic,orange ears,1,glippets
12,1979,implied_prevalence,color,23,generic,purple feathers,1,kweps
12,2202,implied_prevalence,vague,24,generic,long legs,1,lorches
12,3042,implied_prevalence,vague,25,generic,smooth feathers,1,elleps
12,4685,implied_prevalence,part,26,generic,ears,1,feps
12,2667,implied_prevalence,part,27,generic,feathers,1,moxes
12,2826,implied_prevalence,accidental,28,generic,swollen ears,0.9,frams
12,2559,implied_prevalence,disease,29,generic,torn feathers,0.9,wugs
13,7255,implied_prevalence,part,0,generic,feathers,1,krivels
13,9039,implied_prevalence,vague,1,generic,smooth feathers,0.85,stups
13,8448,implied_prevalence,disease,2,generic,burned skin,0.25,javs
13,5224,implied_prevalence,disease,3,generic,torn tails,0.1,luzaks
13,7488,implied_prevalence,color,4,generic,pink teeth,0.95,plovs
13,4648,implied_prevalence,vague,5,generic,big claws,1,wugs
13,4487,implied_prevalence,color,6,generic,blue claws,0.95,kazzes
13,2647,implied_prevalence,part,7,generic,ears,1,glippets
13,5200,implied_prevalence,accidental,8,generic,cracked claws,0.15,trufts
13,2390,implied_prevalence,part,9,generic,legs,1,dorbs
13,4649,implied_prevalence,color,10,generic,orange tails,0.75,mooks
13,2567,implied_prevalence,part,11,generic,teeth,1,feps
13,7337,implied_prevalence,disease,12,generic,fungus-covered fur,0.3,reesles
13,6503,implied_prevalence,disease,13,generic,broken legs,0.02,cheebas
13,5241,implied_prevalence,disease,14,generic,torn feathers,0.05,zoovs
13,6224,implied_prevalence,accidental,15,generic,dusty skin,0.9,grinks
13,2368,implied_prevalence,vague,16,generic,long tails,1,pangolins
13,4960,implied_prevalence,vague,17,generic,rough skin,1,lorches
13,5245,implied_prevalence,color,18,generic,yellow fur,0.95,taifels
13,4635,implied_prevalence,disease,19,generic,worn-out claws,0.15,crullets
13,3640,implied_prevalence,color,20,generic,violet skin,0.95,blins
13,4135,implied_prevalence,accidental,21,generic,wet fur,0.5,ackles
13,5400,implied_prevalence,color,22,generic,purple feathers,0.9,zorbs
13,4328,implied_prevalence,vague,23,generic,curly fur,1,morseths
13,2536,implied_prevalence,vague,24,generic,long teeth,1,frams
13,3048,implied_prevalence,part,25,generic,claws,1,ollers
13,2496,implied_prevalence,part,26,generic,fur,1,kweps
13,5080,implied_prevalence,accidental,27,generic,sore teeth,0.1,elleps
13,4960,implied_prevalence,accidental,28,generic,sore legs,0.1,thups
13,4848,implied_prevalence,accidental,29,generic,itchy tails,0.05,sapers
14,7340,implied_prevalence,part,0,generic,teeth,0.92,dorbs
14,4264,implied_prevalence,color,1,generic,yellow fur,0.82,blins
14,4407,implied_prevalence,accidental,2,generic,itchy tails,0.63,mooks
14,4159,implied_prevalence,vague,3,generic,small ears,0.92,feps
14,5489,implied_prevalence,vague,4,generic,rough skin,0.88,taifels
14,6191,implied_prevalence,disease,5,generic,broken legs,0.04,sapers
14,3681,implied_prevalence,vague,6,generic,long teeth,0.93,pangolins
14,4648,implied_prevalence,disease,7,generic,burned skin,0.05,frams
14,6967,implied_prevalence,part,8,generic,legs,1,cheebas
14,3992,implied_prevalence,color,9,generic,violet skin,0.95,krivels
14,4120,implied_prevalence,accidental,10,generic,swollen ears,0.13,ackles
14,3927,implied_prevalence,accidental,11,generic,sore teeth,0.07,elleps
14,3865,implied_prevalence,color,12,generic,orange ears,0.93,grinks
14,3568,implied_prevalence,disease,13,generic,fungus-covered fur,0.87,trufts
14,3343,implied_prevalence,part,14,generic,tails,0.98,stups
14,3233,implied_prevalence,vague,15,generic,long legs,0.96,wugs
14,2983,implied_prevalence,part,16,generic,fur,0.99,thups
14,5384,implied_prevalence,part,17,generic,claws,0.99,crullets
14,3720,implied_prevalence,color,18,generic,blue claws,0.88,kazzes
14,4272,implied_prevalence,part,19,generic,ears,1,glippets
14,3663,implied_prevalence,color,20,generic,orange tails,0.96,zoovs
14,3977,implied_prevalence,vague,21,generic,curly fur,0.95,javs
14,3544,implied_prevalence,vague,22,generic,big claws,0.95,daiths
14,3928,implied_prevalence,disease,23,generic,infected ears,0.1,lorches
14,5456,implied_prevalence,accidental,24,generic,cracked claws,0.79,kweps
14,3551,implied_prevalence,accidental,25,generic,wet fur,0.99,ollers
14,4193,implied_prevalence,disease,26,generic,torn tails,0.12,morseths
14,3864,implied_prevalence,disease,27,generic,torn feathers,0.12,zorbs
14,2944,implied_prevalence,color,28,generic,pink teeth,0.83,reesles
14,3856,implied_prevalence,accidental,29,generic,dusty skin,0.95,plovs
15,6674,implied_prevalence,accidental,0,generic,sore teeth,1,daiths
15,6439,implied_prevalence,accidental,1,generic,cracked claws,1,pangolins
15,4052,implied_prevalence,vague,2,generic,small ears,1,kweps
15,6250,implied_prevalence,vague,3,generic,smooth feathers,0.95,cheebas
15,4132,implied_prevalence,color,4,generic,blue claws,1,frams
15,2426,implied_prevalence,part,5,generic,tails,1,plovs
15,3224,implied_prevalence,accidental,6,generic,itchy tails,0.9,glippets
15,2491,implied_prevalence,vague,7,generic,big claws,1,luzaks
15,3923,implied_prevalence,disease,8,generic,infected ears,1,ollers
15,4595,implied_prevalence,disease,9,generic,worn-out claws,0.95,thups
15,2513,implied_prevalence,part,10,generic,fur,1,crullets
15,5067,implied_prevalence,vague,11,generic,long tails,0.99,moxes
15,2499,implied_prevalence,color,12,generic,orange ears,1,javs
15,4043,implied_prevalence,vague,13,generic,rough skin,1,mooks
15,5100,implied_prevalence,accidental,14,generic,dusty skin,0.9,morseths
15,2261,implied_prevalence,color,15,generic,violet skin,1,taifels
15,2342,implied_prevalence,color,16,generic,orange tails,1,kazzes
15,4216,implied_prevalence,disease,17,generic,torn tails,0.8,blins
15,2065,implied_prevalence,part,18,generic,skin,1,zorbs
15,2870,implied_prevalence,part,19,generic,ears,1,zoovs
15,2031,implied_prevalence,part,20,generic,feathers,1,grinks
15,4879,implied_prevalence,disease,21,generic,torn feathers,0.9,krivels
15,2254,implied_prevalence,vague,22,generic,long teeth,1,stups
15,4761,implied_prevalence,disease,23,generic,burned skin,0.9,sapers
15,3300,implied_prevalence,accidental,24,generic,sore legs,0.88,lorches
15,2221,implied_prevalence,part,25,generic,teeth,1,reesles
15,1712,implied_prevalence,color,26,generic,silver legs,1,wugs
15,3262,implied_prevalence,disease,27,generic,rotten teeth,0.9,elleps
15,5624,implied_prevalence,accidental,28,generic,swollen ears,0.9,trufts
15,2063,implied_prevalence,color,29,generic,purple feathers,1,feps
16,5455,implied_prevalence,accidental,0,generic,swollen ears,0.08,glippets
16,5279,implied_prevalence,part,1,generic,tails,0.82,lorches
16,7496,implied_prevalence,color,2,generic,purple feathers,0.99,javs
16,7152,implied_prevalence,part,3,generic,fur,1,thups
16,7448,implied_prevalence,vague,4,generic,long legs,0.95,daiths
16,5726,implied_prevalence,color,5,generic,orange ears,0.9,stups
16,6855,implied_prevalence,disease,6,generic,infected ears,0.94,frams
16,8592,implied_prevalence,disease,7,generic,broken legs,0.83,feps
16,3983,implied_prevalence,vague,8,generic,smooth feathers,0.95,kweps
16,7520,implied_prevalence,disease,9,generic,rotten teeth,0.81,crullets
16,3272,implied_prevalence,accidental,10,generic,sore teeth,0.77,mooks
16,3528,implied_prevalence,vague,11,generic,big claws,0.87,pangolins
16,4392,implied_prevalence,part,12,generic,legs,1,blins
16,5001,implied_prevalence,disease,13,generic,torn feathers,0.81,kazzes
16,3567,implied_prevalence,color,14,generic,yellow fur,0.8,trufts
16,3576,implied_prevalence,disease,15,generic,burned skin,0.73,zorbs
16,3656,implied_prevalence,part,16,generic,teeth,0.91,reesles
16,3927,implied_prevalence,vague,17,generic,small ears,0.88,moxes
16,4736,implied_prevalence,part,18,generic,feathers,0.96,zoovs
16,3595,implied_prevalence,accidental,19,generic,cracked claws,0.77,taifels
16,4613,implied_prevalence,color,20,generic,orange tails,0.87,ackles
16,5488,implied_prevalence,accidental,21,generic,wet fur,0.6,plovs
16,4264,implied_prevalence,color,22,generic,silver legs,0.77,krivels
16,2672,implied_prevalence,vague,23,generic,rough skin,0.75,elleps
16,3968,implied_prevalence,vague,24,generic,long tails,0.79,sapers
16,3424,implied_prevalence,color,25,generic,violet skin,0.84,dorbs
16,3248,implied_prevalence,accidental,26,generic,itchy tails,0.75,grinks
16,4696,implied_prevalence,disease,27,generic,worn-out claws,0.62,ollers
16,3864,implied_prevalence,part,28,generic,skin,0.93,cheebas
16,4832,implied_prevalence,accidental,29,generic,dusty skin,0.72,morseths
17,5566,implied_prevalence,accidental,0,generic,sore legs,0.63,cheebas
17,3333,implied_prevalence,disease,1,generic,torn tails,0.4,kazzes
17,2721,implied_prevalence,accidental,2,generic,dusty skin,0.89,dorbs
17,3573,implied_prevalence,part,3,generic,skin,1,crullets
17,4262,implied_prevalence,disease,4,generic,fungus-covered fur,0.91,ollers
17,2384,implied_prevalence,accidental,5,generic,cracked claws,0.52,kweps
17,3747,implied_prevalence,color,6,generic,pink teeth,0.98,glippets
17,2637,implied_prevalence,vague,7,generic,big claws,0.97,trufts
17,2159,implied_prevalence,vague,8,generic,rough skin,0.98,blins
17,1936,implied_prevalence,vague,9,generic,curly fur,0.87,daiths
17,1727,implied_prevalence,color,10,generic,orange tails,0.67,krivels
17,3664,implied_prevalence,vague,11,generic,long teeth,1,pangolins
17,2575,implied_prevalence,part,12,generic,claws,0.92,lorches
17,2432,implied_prevalence,part,13,generic,tails,1,frams
17,2128,implied_prevalence,part,14,generic,fur,1,sapers
17,1962,implied_prevalence,accidental,15,generic,swollen ears,0.77,stups
17,2476,implied_prevalence,vague,16,generic,long legs,0.89,luzaks
17,1752,implied_prevalence,color,17,generic,violet skin,0.73,zoovs
17,2984,implied_prevalence,part,18,generic,feathers,1,feps
17,2000,implied_prevalence,color,19,generic,yellow fur,0.88,mooks
17,1950,implied_prevalence,disease,20,generic,burned skin,0.52,javs
17,2265,implied_prevalence,disease,21,generic,infected ears,0.35,taifels
17,2006,implied_prevalence,part,22,generic,ears,1,wugs
17,2914,implied_prevalence,accidental,23,generic,itchy tails,0.4,zorbs
17,2170,implied_prevalence,color,24,generic,purple feathers,0.81,moxes
17,1936,implied_prevalence,accidental,25,generic,sore teeth,0.27,plovs
17,2017,implied_prevalence,disease,26,generic,torn feathers,0.32,thups
17,2008,implied_prevalence,color,27,generic,silver legs,0.6,elleps
17,1654,implied_prevalence,disease,28,generic,worn-out claws,0.33,reesles
17,2671,implied_prevalence,vague,29,generic,small ears,0.95,morseths
18,13927,implied_prevalence,disease,0,generic,broken legs,1,dorbs
18,4159,implied_prevalence,accidental,1,generic,itchy tails,1,lorches
18,3265,implied_prevalence,disease,2,generic,burned skin,1,daiths
18,2327,implied_prevalence,accidental,3,generic,swollen ears,1,morseths
18,2088,implied_prevalence,color,4,generic,orange ears,1,cheebas
18,2231,implied_prevalence,color,5,generic,purple feathers,1,grinks
18,2976,implied_prevalence,color,6,generic,pink teeth,1,sapers
18,2920,implied_prevalence,disease,7,generic,torn feathers,1,feps
18,3456,implied_prevalence,color,8,generic,orange tails,1,reesles
18,2521,implied_prevalence,vague,9,generic,small ears,1,ackles
18,2687,implied_prevalence,vague,10,generic,long legs,1,ollers
18,2651,implied_prevalence,part,11,generic,teeth,1,zoovs
18,5196,implied_prevalence,vague,12,generic,long tails,1,krivels
18,2056,implied_prevalence,color,13,generic,silver legs,1,taifels
18,2840,implied_prevalence,vague,14,generic,big claws,1,luzaks
18,3697,implied_prevalence,part,15,generic,claws,1,frams
18,6080,implied_prevalence,disease,16,generic,infected ears,1,crullets
18,1680,implied_prevalence,accidental,17,generic,cracked claws,1,blins
18,1976,implied_prevalence,part,18,generic,feathers,1,javs
18,1656,implied_prevalence,accidental,19,generic,sore legs,1,pangolins
18,1879,implied_prevalence,vague,20,generic,long teeth,1,glippets
18,2018,implied_prevalence,part,21,generic,skin,1,wugs
18,2274,implied_prevalence,color,22,generic,violet skin,1,elleps
18,2832,implied_prevalence,vague,23,generic,smooth feathers,1,trufts
18,1759,implied_prevalence,part,24,generic,fur,1,plovs
18,1848,implied_prevalence,disease,25,generic,worn-out claws,1,mooks
18,1663,implied_prevalence,disease,26,generic,rotten teeth,1,kweps
18,2600,implied_prevalence,accidental,27,generic,wet fur,1,stups
18,1639,implied_prevalence,part,28,generic,tails,1,zorbs
18,1376,implied_prevalence,accidental,29,generic,muddy feathers,1,moxes
19,7583,implied_prevalence,part,0,generic,teeth,1,mooks
19,2317,implied_prevalence,accidental,1,generic,itchy tails,1,zoovs
19,4113,implied_prevalence,vague,2,generic,long teeth,1,javs
19,5361,implied_prevalence,color,3,generic,blue claws,0.64,stups
19,3701,implied_prevalence,color,4,generic,purple feathers,0.53,kazzes
19,3759,implied_prevalence,disease,5,generic,torn feathers,0.12,wugs
19,5801,implied_prevalence,color,6,generic,orange ears,0.66,zorbs
19,3342,implied_prevalence,accidental,7,generic,cracked claws,0.18,frams
19,7814,implied_prevalence,accidental,8,generic,sore teeth,0.12,feps
19,2505,implied_prevalence,color,9,generic,pink teeth,0.55,cheebas
19,4927,implied_prevalence,disease,10,generic,burned skin,0.16,grinks
19,2351,implied_prevalence,part,11,generic,fur,0.98,luzaks
19,2959,implied_prevalence,disease,12,generic,torn tails,0.1,sapers
19,4328,implied_prevalence,vague,13,generic,curly fur,0.74,kweps
19,3928,implied_prevalence,part,14,generic,ears,1,moxes
19,2662,implied_prevalence,disease,15,generic,worn-out claws,0.16,thups
19,3775,implied_prevalence,disease,16,generic,broken legs,0.03,taifels
19,3471,implied_prevalence,part,17,generic,feathers,1,ackles
19,1927,implied_prevalence,accidental,18,generic,dusty skin,0.07,daiths
19,3607,implied_prevalence,accidental,19,generic,sore legs,0.05,pangolins
19,2496,implied_prevalence,vague,20,generic,big claws,0.92,elleps
19,2526,implied_prevalence,vague,21,generic,long legs,0.92,plovs
19,6760,implied_prevalence,part,22,generic,claws,0.94,reesles
19,2819,implied_prevalence,vague,23,generic,rough skin,0.77,krivels
19,2061,implied_prevalence,accidental,24,generic,swollen ears,0.19,lorches
19,3960,implied_prevalence,disease,25,generic,fungus-covered fur,0.2,trufts
19,2471,implied_prevalence,color,26,generic,violet skin,0.62,ollers
19,2951,implied_prevalence,part,27,generic,tails,0.88,dorbs
19,5855,implied_prevalence,color,28,generic,silver legs,0.52,blins
19,2185,implied_prevalence,vague,29,generic,small ears,0.91,glippets
20,8628,implied_prevalence,part,0,generic,feathers,1,reesles
20,9473,implied_prevalence,disease,1,generic,torn tails,1,zoovs
20,6764,implied_prevalence,color,2,generic,silver legs,0.95,lorches
20,4187,implied_prevalence,vague,3,generic,small ears,0.96,kweps
20,6277,implied_prevalence,accidental,4,generic,sore teeth,0.5,moxes
20,4410,implied_prevalence,part,5,generic,teeth,1,daiths
20,4034,implied_prevalence,color,6,generic,yellow fur,0.93,zorbs
20,3516,implied_prevalence,color,7,generic,blue claws,0.89,morseths
20,5455,implied_prevalence,accidental,8,generic,swollen ears,0.81,blins
20,5258,implied_prevalence,accidental,9,generic,muddy feathers,0.65,stups
20,3820,implied_prevalence,accidental,10,generic,wet fur,0.34,feps
20,3947,implied_prevalence,vague,11,generic,smooth feathers,0.97,luzaks
20,4546,implied_prevalence,color,12,generic,violet skin,0.96,plovs
20,3441,implied_prevalence,part,13,generic,skin,1,ollers
20,4662,implied_prevalence,color,14,generic,pink teeth,0.9,crullets
20,4280,implied_prevalence,disease,15,generic,fungus-covered fur,0.45,krivels
20,3205,implied_prevalence,disease,16,generic,rotten teeth,0.26,sapers
20,4002,implied_prevalence,disease,17,generic,worn-out claws,0.23,elleps
20,2771,implied_prevalence,accidental,18,generic,cracked claws,0.24,taifels
20,4683,implied_prevalence,vague,19,generic,long tails,0.95,grinks
20,3553,implied_prevalence,disease,20,generic,broken legs,0.04,kazzes
20,3186,implied_prevalence,disease,21,generic,torn feathers,0.18,ackles
20,2618,implied_prevalence,part,22,generic,fur,0.99,glippets
20,2655,implied_prevalence,part,23,generic,tails,0.99,pangolins
20,3568,implied_prevalence,part,24,generic,legs,1,cheebas
20,4182,implied_prevalence,vague,25,generic,long legs,0.94,mooks
20,2838,implied_prevalence,accidental,26,generic,sore legs,0.21,thups
20,3176,implied_prevalence,vague,27,generic,big claws,0.95,javs
20,3570,implied_prevalence,color,28,generic,orange tails,0.84,wugs
20,5232,implied_prevalence,vague,29,generic,long teeth,0.87,trufts
21,10960,implied_prevalence,disease,0,generic,rotten teeth,0.94,frams
21,5573,implied_prevalence,part,1,generic,ears,1,kazzes
21,4809,implied_prevalence,accidental,2,generic,itchy tails,1,luzaks
21,3847,implied_prevalence,part,3,generic,claws,1,javs
21,3106,implied_prevalence,vague,4,generic,long teeth,0.96,sapers
21,4209,implied_prevalence,disease,5,generic,worn-out claws,0.97,trufts
21,2778,implied_prevalence,vague,6,generic,smooth feathers,0.99,thups
21,3186,implied_prevalence,color,7,generic,purple feathers,0.99,glippets
21,5920,implied_prevalence,color,8,generic,orange tails,0.98,pangolins
21,2923,implied_prevalence,vague,9,generic,rough skin,1,lorches
21,4070,implied_prevalence,part,10,generic,tails,0.99,crullets
21,2197,implied_prevalence,vague,11,generic,big claws,0.98,krivels
21,4493,implied_prevalence,part,12,generic,legs,1,reesles
21,3033,implied_prevalence,accidental,13,generic,muddy feathers,0.97,feps
21,2917,implied_prevalence,part,14,generic,teeth,0.98,dorbs
21,5373,implied_prevalence,disease,15,generic,broken legs,0.99,cheebas
21,4150,implied_prevalence,vague,16,generic,curly fur,0.99,stups
21,3319,implied_prevalence,color,17,generic,violet skin,0.98,morseths
21,5875,implied_prevalence,color,18,generic,yellow fur,0.99,daiths
21,3264,implied_prevalence,disease,19,generic,torn feathers,0.98,ackles
21,4700,implied_prevalence,accidental,20,generic,cracked claws,0.98,zorbs
21,3673,implied_prevalence,accidental,21,generic,swollen ears,1,grinks
21,2343,implied_prevalence,accidental,22,generic,dusty skin,0.98,plovs
21,2934,implied_prevalence,color,23,generic,pink teeth,0.96,taifels
21,4878,implied_prevalence,disease,24,generic,fungus-covered fur,0.96,mooks
21,2602,implied_prevalence,vague,25,generic,long legs,0.98,moxes
21,3179,implied_prevalence,accidental,26,generic,sore teeth,0.99,blins
21,3607,implied_prevalence,disease,27,generic,burned skin,0.98,elleps
21,4060,implied_prevalence,part,28,generic,feathers,1,kweps
21,3169,implied_prevalence,color,29,generic,orange ears,1,wugs
22,7187,implied_prevalence,disease,0,generic,torn feathers,0.65,kweps
22,5217,implied_prevalence,color,1,generic,violet skin,0.85,wugs
22,3816,implied_prevalence,accidental,2,generic,swollen ears,0.64,daiths
22,6760,implied_prevalence,disease,3,generic,worn-out claws,0.4,reesles
22,4289,implied_prevalence,color,4,generic,yellow fur,0.81,cheebas
22,3717,implied_prevalence,disease,5,generic,fungus-covered fur,0.37,frams
22,3049,implied_prevalence,accidental,6,generic,sore teeth,0.34,dorbs
22,3500,implied_prevalence,accidental,7,generic,sore legs,0.4,taifels
22,4349,implied_prevalence,color,8,generic,orange ears,0.85,kazzes
22,2999,implied_prevalence,color,9,generic,orange tails,0.87,ollers
22,4084,implied_prevalence,part,10,generic,fur,0.87,trufts
22,2766,implied_prevalence,disease,11,generic,rotten teeth,0.2,blins
22,3867,implied_prevalence,accidental,12,generic,itchy tails,0.27,morseths
22,3534,implied_prevalence,part,13,generic,feathers,0.95,luzaks
22,3317,implied_prevalence,part,14,generic,ears,0.98,javs
22,3750,implied_prevalence,disease,15,generic,infected ears,0.27,feps
22,2897,implied_prevalence,color,16,generic,blue claws,0.83,thups
22,2434,implied_prevalence,part,17,generic,legs,0.95,elleps
22,2967,implied_prevalence,disease,18,generic,burned skin,0.4,grinks
22,2467,implied_prevalence,vague,19,generic,small ears,0.82,crullets
22,4133,implied_prevalence,vague,20,generic,big claws,0.82,stups
22,4599,implied_prevalence,accidental,21,generic,cracked claws,0.39,pangolins
22,3502,implied_prevalence,accidental,22,generic,muddy feathers,0.28,mooks
22,2449,implied_prevalence,part,23,generic,tails,0.93,glippets
22,2761,implied_prevalence,vague,24,generic,long legs,0.85,ackles
22,2253,implied_prevalence,color,25,generic,silver legs,0.89,moxes
22,2919,implied_prevalence,vague,26,generic,long teeth,0.87,krivels
22,2734,implied_prevalence,part,27,generic,skin,0.97,zorbs
22,3581,implied_prevalence,vague,28,generic,smooth feathers,0.83,zoovs
22,2316,implied_prevalence,vague,29,generic,long tails,0.91,lorches
23,24315,implied_prevalence,vague,0,generic,curly fur,1,lorches
23,7201,implied_prevalence,color,1,generic,purple feathers,0.7,zoovs
23,9394,implied_prevalence,vague,2,generic,smooth feathers,0.85,morseths
23,9542,implied_prevalence,accidental,3,generic,sore teeth,0.8,elleps
23,9024,implied_prevalence,accidental,4,generic,sore legs,0.9,feps
23,8447,implied_prevalence,color,5,generic,pink teeth,0.9,trufts
23,13777,implied_prevalence,part,6,generic,skin,1,zorbs
23,7953,implied_prevalence,vague,7,generic,long tails,0.9,stups
23,7025,implied_prevalence,part,8,generic,claws,1,javs
23,6208,implied_prevalence,disease,9,generic,infected ears,0.8,daiths
23,8984,implied_prevalence,disease,10,generic,torn feathers,0.8,moxes
23,6060,implied_prevalence,vague,11,generic,small ears,0.9,thups
23,17024,implied_prevalence,color,12,generic,orange tails,0.95,luzaks
23,16403,implied_prevalence,part,13,generic,legs,0.95,frams
23,8787,implied_prevalence,color,14,generic,orange ears,0.9,dorbs
23,8993,implied_prevalence,accidental,15,generic,dusty skin,0.8,kazzes
23,10878,implied_prevalence,disease,16,generic,torn tails,0.9,reesles
23,7421,implied_prevalence,vague,17,generic,rough skin,1,pangolins
23,16636,implied_prevalence,part,18,generic,tails,0.95,ollers
23,8027,implied_prevalence,disease,19,generic,broken legs,1,grinks
23,4261,implied_prevalence,color,20,generic,yellow fur,0.8,mooks
23,8660,implied_prevalence,accidental,21,generic,itchy tails,0.85,kweps
23,5713,implied_prevalence,vague,22,generic,long legs,1,plovs
23,10829,implied_prevalence,part,23,generic,fur,0.9,cheebas
23,12611,implied_prevalence,accidental,24,generic,wet fur,0.8,krivels
23,7880,implied_prevalence,disease,25,generic,burned skin,0.9,wugs
23,8897,implied_prevalence,color,26,generic,violet skin,1,crullets
23,7484,implied_prevalence,disease,27,generic,worn-out claws,1,sapers
23,7250,implied_prevalence,accidental,28,generic,cracked claws,1,blins
23,6359,implied_prevalence,part,29,generic,ears,1,glippets
24,11085,implied_prevalence,part,0,generic,fur,1,pangolins
24,5774,implied_prevalence,part,1,generic,feathers,1,glippets
24,7456,implied_prevalence,vague,2,generic,big claws,1,plovs
24,9570,implied_prevalence,disease,3,generic,rotten teeth,0.4,mooks
24,8216,implied_prevalence,accidental,4,generic,muddy feathers,0.55,kazzes
24,8207,implied_prevalence,disease,5,generic,burned skin,0.8,lorches
24,3057,implied_prevalence,part,6,generic,skin,1,ollers
24,2832,implied_prevalence,color,7,generic,violet skin,1,zorbs
24,3312,implied_prevalence,color,8,generic,orange ears,1,trufts
24,8591,implied_prevalence,vague,9,generic,long tails,0.9,morseths
24,4481,implied_prevalence,vague,10,generic,long teeth,0.9,ackles
24,5496,implied_prevalence,accidental,11,generic,wet fur,0.5,javs
24,9003,implied_prevalence,accidental,12,generic,sore legs,0.5,grinks
24,3680,implied_prevalence,vague,13,generic,rough skin,1,reesles
24,3272,implied_prevalence,color,14,generic,purple feathers,1,frams
24,8479,implied_prevalence,color,15,generic,orange tails,1,kweps
24,3816,implied_prevalence,color,16,generic,yellow fur,1,sapers
24,4136,implied_prevalence,part,17,generic,ears,1,blins
24,3248,implied_prevalence,part,18,generic,legs,1,luzaks
24,5415,implied_prevalence,disease,19,generic,torn tails,0.4,zoovs
24,2743,implied_prevalence,part,20,generic,claws,1,taifels
24,4601,implied_prevalence,disease,21,generic,torn feathers,0.4,crullets
24,4080,implied_prevalence,disease,22,generic,infected ears,0.3,stups
24,3384,implied_prevalence,color,23,generic,blue claws,1,moxes
24,6456,implied_prevalence,accidental,24,generic,swollen ears,0.7,thups
24,4920,implied_prevalence,vague,25,generic,small ears,0.9,feps
24,8174,implied_prevalence,accidental,26,generic,cracked claws,0.85,cheebas
24,7336,implied_prevalence,disease,27,generic,broken legs,0.15,wugs
24,5208,implied_prevalence,accidental,28,generic,sore teeth,0.2,dorbs
24,2488,implied_prevalence,vague,29,generic,long legs,1,elleps
25,15260,implied_prevalence,part,0,generic,claws,0.95,pangolins
25,14016,implied_prevalence,vague,1,generic,big claws,0.92,reesles
25,28348,implied_prevalence,color,2,generic,orange ears,0.91,wugs
25,10220,implied_prevalence,accidental,3,generic,itchy tails,0.79,zoovs
25,6352,implied_prevalence,vague,4,generic,rough skin,0.94,dorbs
25,15127,implied_prevalence,vague,5,generic,curly fur,0.9,moxes
25,8880,implied_prevalence,part,6,generic,fur,0.96,luzaks
25,7160,implied_prevalence,vague,7,generic,long legs,0.9,frams
25,12825,implied_prevalence,part,8,generic,feathers,0.96,mooks
25,15839,implied_prevalence,accidental,9,generic,wet fur,0.71,kazzes
25,8839,implied_prevalence,color,10,generic,purple feathers,0.94,ackles
25,15167,implied_prevalence,part,11,generic,ears,0.99,taifels
25,8680,implied_prevalence,accidental,12,generic,sore teeth,0.35,stups
25,6585,implied_prevalence,part,13,generic,tails,0.98,grinks
25,10047,implied_prevalence,color,14,generic,silver legs,0.97,plovs
25,8112,implied_prevalence,disease,15,generic,rotten teeth,0.35,crullets
25,6319,implied_prevalence,vague,16,generic,long tails,0.98,cheebas
25,8497,implied_prevalence,color,17,generic,orange tails,0.96,lorches
25,10088,implied_prevalence,vague,18,generic,small ears,0.98,trufts
25,10663,implied_prevalence,disease,19,generic,broken legs,0.08,javs
25,10120,implied_prevalence,disease,20,generic,burned skin,0.05,krivels
25,7992,implied_prevalence,disease,21,generic,torn feathers,0.04,elleps
25,5960,implied_prevalence,part,22,generic,legs,0.96,thups
25,5632,implied_prevalence,color,23,generic,yellow fur,0.95,morseths
25,10879,implied_prevalence,color,24,generic,violet skin,0.94,sapers
25,27641,implied_prevalence,accidental,25,generic,swollen ears,0.08,zorbs
25,9231,implied_prevalence,disease,26,generic,worn-out claws,0.12,daiths
25,9439,implied_prevalence,accidental,27,generic,dusty skin,0.1,kweps
25,9728,implied_prevalence,disease,28,generic,fungus-covered fur,0.04,feps
25,4945,implied_prevalence,accidental,29,generic,cracked claws,0.04,ollers
26,5065,implied_prevalence,vague,0,generic,smooth feathers,0.92,frams
26,6342,implied_prevalence,vague,1,generic,long tails,0.94,javs
26,4357,implied_prevalence,disease,2,generic,rotten teeth,0.8,mooks
26,4074,implied_prevalence,disease,3,generic,fungus-covered fur,0.8,blins
26,4524,implied_prevalence,accidental,4,generic,swollen ears,0.92,zoovs
26,10209,implied_prevalence,vague,5,generic,long teeth,0.95,feps
26,3484,implied_prevalence,accidental,6,generic,wet fur,0.76,stups
26,39193,implied_prevalence,part,7,generic,feathers,1,moxes
26,4604,implied_prevalence,accidental,8,generic,sore legs,0.46,daiths
26,19338,implied_prevalence,accidental,9,generic,muddy feathers,0.76,glippets
26,4345,implied_prevalence,vague,10,generic,big claws,0.62,trufts
26,2976,implied_prevalence,vague,11,generic,curly fur,0.96,krivels
26,3245,implied_prevalence,disease,12,generic,infected ears,0.58,reesles
26,2534,implied_prevalence,disease,13,generic,broken legs,0.35,plovs
26,5182,implied_prevalence,accidental,14,generic,dusty skin,0.66,zorbs
26,3532,implied_prevalence,vague,15,generic,long legs,1,crullets
26,5121,implied_prevalence,color,16,generic,blue claws,0.81,wugs
26,4284,implied_prevalence,accidental,17,generic,itchy tails,0.22,cheebas
26,31666,implied_prevalence,color,18,generic,pink teeth,1,taifels
26,3912,implied_prevalence,color,19,generic,orange ears,0.89,grinks
26,3317,implied_prevalence,part,20,generic,skin,1,pangolins
26,3122,implied_prevalence,color,21,generic,orange tails,0.94,ackles
26,2641,implied_prevalence,part,22,generic,ears,1,luzaks
26,2417,implied_prevalence,disease,23,generic,torn feathers,0.68,ollers
26,2773,implied_prevalence,disease,24,generic,burned skin,0.77,kazzes
26,3030,implied_prevalence,part,25,generic,legs,0.83,kweps
26,198197,implied_prevalence,part,26,generic,claws,1,thups
26,2109,implied_prevalence,color,27,generic,yellow fur,0.88,morseths
26,3400,implied_prevalence,color,28,generic,purple feathers,0.89,dorbs
26,2828,implied_prevalence,part,29,generic,fur,1,elleps
27,9250,implied_prevalence,color,0,generic,pink teeth,0.94,morseths
27,6382,implied_prevalence,vague,1,generic,smooth feathers,0.94,lorches
27,5084,implied_prevalence,disease,2,generic,fungus-covered fur,0.94,plovs
27,5646,implied_prevalence,color,3,generic,blue claws,0.94,moxes
27,5919,implied_prevalence,disease,4,generic,broken legs,0.86,ackles
27,6132,implied_prevalence,vague,5,generic,curly fur,0.94,stups
27,5848,implied_prevalence,accidental,6,generic,muddy feathers,0.9,frams
27,5674,implied_prevalence,accidental,7,generic,swollen ears,0.86,reesles
27,2882,implied_prevalence,disease,8,generic,burned skin,0.86,sapers
27,2756,implied_prevalence,vague,9,generic,long tails,0.94,ollers
27,3519,implied_prevalence,disease,10,generic,torn feathers,0.86,cheebas
27,4111,implied_prevalence,accidental,11,generic,sore teeth,0.86,thups
27,4649,implied_prevalence,part,12,generic,skin,0.99,kweps
27,4668,implied_prevalence,part,13,generic,claws,0.94,wugs
27,9599,implied_prevalence,part,14,generic,ears,0.99,elleps
27,4210,implied_prevalence,accidental,15,generic,dusty skin,0.86,krivels
27,5640,implied_prevalence,color,16,generic,orange ears,0.86,taifels
27,3504,implied_prevalence,color,17,generic,yellow fur,0.94,javs
27,3095,implied_prevalence,part,18,generic,fur,0.94,zorbs
27,3131,implied_prevalence,accidental,19,generic,wet fur,0.9,grinks
27,3739,implied_prevalence,accidental,20,generic,sore legs,0.86,pangolins
27,3963,implied_prevalence,vague,21,generic,rough skin,0.94,feps
27,2749,implied_prevalence,vague,22,generic,big claws,0.94,glippets
27,2795,implied_prevalence,part,23,generic,teeth,0.99,zoovs
27,2617,implied_prevalence,disease,24,generic,infected ears,0.86,daiths
27,2949,implied_prevalence,part,25,generic,tails,0.97,crullets
27,3802,implied_prevalence,disease,26,generic,torn tails,0.84,trufts
27,2884,implied_prevalence,color,27,generic,violet skin,0.95,kazzes
27,2987,implied_prevalence,color,28,generic,silver legs,0.95,luzaks
27,2569,implied_prevalence,vague,29,generic,long legs,0.96,mooks
28,4601,implied_prevalence,color,0,generic,pink teeth,0.99,luzaks
28,6696,implied_prevalence,part,1,generic,claws,1,cheebas
28,4911,implied_prevalence,disease,2,generic,burned skin,1,stups
28,3575,implied_prevalence,vague,3,generic,small ears,1,feps
28,3776,implied_prevalence,color,4,generic,orange tails,1,moxes
28,4055,implied_prevalence,accidental,5,generic,muddy feathers,1,kazzes
28,3674,implied_prevalence,disease,6,generic,broken legs,1,plovs
28,3013,implied_prevalence,part,7,generic,legs,1,kweps
28,3319,implied_prevalence,accidental,8,generic,sore teeth,1,ollers
28,3391,implied_prevalence,disease,9,generic,rotten teeth,1,grinks
28,3662,implied_prevalence,part,10,generic,feathers,1,daiths
28,3695,implied_prevalence,vague,11,generic,curly fur,1,sapers
28,3617,implied_prevalence,vague,12,generic,long teeth,1,elleps
28,8703,implied_prevalence,color,13,generic,orange ears,0.9,lorches
28,3631,implied_prevalence,accidental,14,generic,sore legs,1,pangolins
28,6896,implied_prevalence,vague,15,generic,big claws,0.96,mooks
28,3215,implied_prevalence,accidental,16,generic,dusty skin,1,glippets
28,3183,implied_prevalence,color,17,generic,blue claws,1,taifels
28,2961,implied_prevalence,vague,18,generic,rough skin,1,zorbs
28,3958,implied_prevalence,part,19,generic,teeth,1,morseths
28,5551,implied_prevalence,color,20,generic,purple feathers,0.93,ackles
28,4001,implied_prevalence,accidental,21,generic,swollen ears,1,javs
28,3167,implied_prevalence,part,22,generic,fur,1,trufts
28,5446,implied_prevalence,color,23,generic,silver legs,0.95,crullets
28,2921,implied_prevalence,accidental,24,generic,wet fur,1,krivels
28,3182,implied_prevalence,disease,25,generic,fungus-covered fur,1,wugs
28,4191,implied_prevalence,part,26,generic,ears,1,frams
28,4120,implied_prevalence,disease,27,generic,worn-out claws,0.97,thups
28,10056,implied_prevalence,disease,28,generic,infected ears,0.91,dorbs
28,3472,implied_prevalence,vague,29,generic,long tails,0.94,zoovs
29,7143,implied_prevalence,accidental,0,generic,sore teeth,1,luzaks
29,6583,implied_prevalence,disease,1,generic,worn-out claws,1,krivels
29,4835,implied_prevalence,disease,2,generic,fungus-covered fur,1,ollers
29,4087,implied_prevalence,accidental,3,generic,itchy tails,1,stups
29,2895,implied_prevalence,accidental,4,generic,muddy feathers,1,dorbs
29,3408,implied_prevalence,vague,5,generic,long tails,1,thups
29,2552,implied_prevalence,accidental,6,generic,dusty skin,1,morseths
29,2713,implied_prevalence,disease,7,generic,rotten teeth,1,grinks
29,3799,implied_prevalence,part,8,generic,skin,1,plovs
29,3295,implied_prevalence,vague,9,generic,long teeth,1,frams
29,2992,implied_prevalence,color,10,generic,silver legs,1,ackles
29,2888,implied_prevalence,part,11,generic,legs,1,mooks
29,5201,implied_prevalence,color,12,generic,orange ears,1,javs
29,2672,implied_prevalence,color,13,generic,violet skin,1,pangolins
29,2415,implied_prevalence,vague,14,generic,small ears,1,trufts
29,2416,implied_prevalence,color,15,generic,orange tails,1,taifels
29,3432,implied_prevalence,part,16,generic,claws,1,sapers
29,2376,implied_prevalence,part,17,generic,tails,1,reesles
29,2393,implied_prevalence,part,18,generic,ears,1,crullets
29,2383,implied_prevalence,part,19,generic,teeth,1,daiths
29,3847,implied_prevalence,vague,20,generic,smooth feathers,1,lorches
29,3619,implied_prevalence,accidental,21,generic,sore legs,1,zorbs
29,2648,implied_prevalence,disease,22,generic,broken legs,1,kazzes
29,2368,implied_prevalence,color,23,generic,blue claws,1,elleps
29,3096,implied_prevalence,color,24,generic,purple feathers,1,moxes
29,2352,implied_prevalence,disease,25,generic,torn tails,1,glippets
29,2200,implied_prevalence,accidental,26,generic,cracked claws,1,wugs
29,3160,implied_prevalence,vague,27,generic,rough skin,1,feps
29,2824,implied_prevalence,disease,28,generic,burned skin,1,blins
29,2072,implied_prevalence,vague,29,generic,curly fur,1,zoovs
30,10110,implied_prevalence,disease,0,generic,fungus-covered fur,1,daiths
30,5313,implied_prevalence,vague,1,generic,smooth feathers,1,trufts
30,5927,implied_prevalence,accidental,2,generic,sore legs,0.88,zorbs
30,6213,implied_prevalence,color,3,generic,orange tails,0.99,glippets
30,7299,implied_prevalence,vague,4,generic,rough skin,0.99,crullets
30,5257,implied_prevalence,accidental,5,generic,wet fur,0.89,grinks
30,7043,implied_prevalence,accidental,6,generic,dusty skin,0.99,kweps
30,6767,implied_prevalence,disease,7,generic,torn tails,0.98,mooks
30,3616,implied_prevalence,part,8,generic,feathers,1,ollers
30,5039,implied_prevalence,vague,9,generic,long teeth,0.99,morseths
30,7092,implied_prevalence,color,10,generic,purple feathers,0.99,krivels
30,5504,implied_prevalence,part,11,generic,claws,1,reesles
30,3697,implied_prevalence,accidental,12,generic,itchy tails,0.95,thups
30,3485,implied_prevalence,part,13,generic,skin,1,kazzes
30,6932,implied_prevalence,disease,14,generic,torn feathers,0.99,sapers
30,3933,implied_prevalence,color,15,generic,blue claws,0.99,frams
30,3702,implied_prevalence,accidental,16,generic,muddy feathers,0.94,luzaks
30,3648,implied_prevalence,vague,17,generic,big claws,0.94,elleps
30,4114,implied_prevalence,color,18,generic,yellow fur,0.98,taifels
30,3901,implied_prevalence,part,19,generic,ears,1,ackles
30,4283,implied_prevalence,part,20,generic,fur,1,zoovs
30,3869,implied_prevalence,accidental,21,generic,sore teeth,0.79,wugs
30,4918,implied_prevalence,vague,22,generic,curly fur,0.95,feps
30,2331,implied_prevalence,disease,23,generic,infected ears,0.9,cheebas
30,2617,implied_prevalence,disease,24,generic,rotten teeth,0.9,javs
30,3076,implied_prevalence,disease,25,generic,worn-out claws,0.88,lorches
30,3530,implied_prevalence,part,26,generic,tails,0.99,moxes
30,3013,implied_prevalence,vague,27,generic,long legs,0.96,pangolins
30,3162,implied_prevalence,color,28,generic,silver legs,0.99,stups
30,4354,implied_prevalence,color,29,generic,violet skin,0.99,plovs
31,6807,implied_prevalence,vague,0,generic,long teeth,0.55,trufts
31,4863,implied_prevalence,accidental,1,generic,sore teeth,0.18,lorches
31,6449,implied_prevalence,vague,2,generic,curly fur,0.11,pangolins
31,6124,implied_prevalence,part,3,generic,ears,0.92,zoovs
31,10098,implied_prevalence,part,4,generic,legs,0.94,frams
31,3521,implied_prevalence,color,5,generic,blue claws,0.49,plovs
31,4109,implied_prevalence,disease,6,generic,torn feathers,0.11,elleps
31,5312,implied_prevalence,disease,7,generic,fungus-covered fur,0.02,javs
31,9034,implied_prevalence,vague,8,generic,big claws,0.94,crullets
31,18243,implied_prevalence,part,9,generic,skin,1,wugs
31,15581,implied_prevalence,accidental,10,generic,swollen ears,0.03,ollers
31,4504,implied_prevalence,disease,11,generic,rotten teeth,0.04,luzaks
31,5189,implied_prevalence,color,12,generic,silver legs,0.73,reesles
31,26038,implied_prevalence,vague,13,generic,long tails,0.89,mooks
31,8158,implied_prevalence,color,14,generic,pink teeth,0.53,ackles
31,4210,implied_prevalence,vague,15,generic,smooth feathers,0.88,morseths
31,10548,implied_prevalence,color,16,generic,purple feathers,0.94,stups
31,5254,implied_prevalence,color,17,generic,violet skin,0.93,kazzes
31,7415,implied_prevalence,disease,18,generic,broken legs,0.04,sapers
31,4696,implied_prevalence,part,19,generic,teeth,1,grinks
31,3571,implied_prevalence,part,20,generic,feathers,1,kweps
31,6357,implied_prevalence,disease,21,generic,torn tails,0.05,zorbs
31,16523,implied_prevalence,vague,22,generic,long legs,0.92,taifels
31,4825,implied_prevalence,accidental,23,generic,wet fur,0.11,cheebas
31,6082,implied_prevalence,accidental,24,generic,muddy feathers,0.05,feps
31,6492,implied_prevalence,part,25,generic,claws,1,krivels
31,6425,implied_prevalence,disease,26,generic,worn-out claws,0.05,dorbs
31,9545,implied_prevalence,accidental,27,generic,cracked claws,0.05,thups
31,4787,implied_prevalence,accidental,28,generic,dusty skin,0.1,daiths
31,6953,implied_prevalence,color,29,generic,orange ears,0.93,glippets
32,4497,implied_prevalence,part,0,generic,teeth,0.64,stups
32,2849,implied_prevalence,vague,1,generic,small ears,0.57,taifels
32,1544,implied_prevalence,accidental,2,generic,wet fur,0.68,sapers
32,2680,implied_prevalence,color,3,generic,yellow fur,0.65,moxes
32,4032,implied_prevalence,disease,4,generic,torn feathers,0.63,plovs
32,4122,implied_prevalence,part,5,generic,fur,0.68,mooks
32,2001,implied_prevalence,disease,6,generic,broken legs,0.63,frams
32,2042,implied_prevalence,color,7,generic,orange tails,0.71,elleps
32,4954,implied_prevalence,accidental,8,generic,muddy feathers,0.65,ollers
32,5321,implied_prevalence,disease,9,generic,torn tails,0.69,wugs
32,3768,implied_prevalence,accidental,10,generic,dusty skin,0.67,trufts
32,2315,implied_prevalence,part,11,generic,skin,0.66,zoovs
32,1890,implied_prevalence,accidental,12,generic,sore legs,0.67,grinks
32,2204,implied_prevalence,part,13,generic,claws,0.53,krivels
32,4454,implied_prevalence,part,14,generic,feathers,0.61,dorbs
32,1279,implied_prevalence,vague,15,generic,long tails,0.6,kazzes
32,2487,implied_prevalence,disease,16,generic,rotten teeth,0.65,feps
32,2065,implied_prevalence,vague,17,generic,long legs,0.62,ackles
32,1318,implied_prevalence,color,18,generic,violet skin,0.64,thups
32,2516,implied_prevalence,vague,19,generic,rough skin,0.67,javs
32,1600,implied_prevalence,vague,20,generic,big claws,0.71,crullets
32,1712,implied_prevalence,vague,21,generic,long teeth,0.64,luzaks
32,2233,implied_prevalence,disease,22,generic,fungus-covered fur,0.72,blins
32,2415,implied_prevalence,accidental,23,generic,sore teeth,0.67,lorches
32,1968,implied_prevalence,disease,24,generic,worn-out claws,0.76,glippets
32,2566,implied_prevalence,color,25,generic,orange ears,0.7,kweps
32,1640,implied_prevalence,accidental,26,generic,itchy tails,0.75,morseths
32,2329,implied_prevalence,color,27,generic,silver legs,0.73,zorbs
32,1521,implied_prevalence,color,28,generic,blue claws,0.71,reesles
32,2779,implied_prevalence,part,29,generic,ears,0.67,daiths
33,10247,implied_prevalence,color,0,generic,yellow fur,0.69,mooks
33,3400,implied_prevalence,vague,1,generic,long legs,0.37,blins
33,2127,implied_prevalence,vague,2,generic,big claws,0.21,stups
33,2216,implied_prevalence,accidental,3,generic,muddy feathers,0.58,ackles
33,2904,implied_prevalence,vague,4,generic,small ears,0.5,daiths
33,2239,implied_prevalence,disease,5,generic,torn feathers,0.85,zorbs
33,2136,implied_prevalence,accidental,6,generic,dusty skin,0.2,lorches
33,1513,implied_prevalence,color,7,generic,pink teeth,0.46,reesles
33,1544,implied_prevalence,disease,8,generic,torn tails,0.68,crullets
33,1344,implied_prevalence,color,9,generic,orange tails,0.31,kweps
33,4328,implied_prevalence,disease,10,generic,fungus-covered fur,0.49,pangolins
33,1870,implied_prevalence,part,11,generic,fur,0.14,cheebas
33,1833,implied_prevalence,accidental,12,generic,sore legs,0.55,sapers
33,1215,implied_prevalence,color,13,generic,silver legs,0.35,grinks
33,2007,implied_prevalence,part,14,generic,claws,0.76,taifels
33,1601,implied_prevalence,disease,15,generic,burned skin,0.52,morseths
33,2735,implied_prevalence,accidental,16,generic,swollen ears,0.81,plovs
33,1865,implied_prevalence,color,17,generic,violet skin,0.38,zoovs
33,1672,implied_prevalence,part,18,generic,teeth,0.56,javs
33,2072,implied_prevalence,part,19,generic,feathers,0.2,moxes
33,1434,implied_prevalence,part,20,generic,tails,0.75,luzaks
33,1326,implied_prevalence,part,21,generic,legs,0.47,thups
33,1352,implied_prevalence,disease,22,generic,worn-out claws,0.51,ollers
33,4120,implied_prevalence,color,23,generic,blue claws,0.36,glippets
33,1456,implied_prevalence,vague,24,generic,rough skin,0.57,dorbs
33,176489,implied_prevalence,accidental,25,generic,wet fur,0.44,elleps
33,2312,implied_prevalence,vague,26,generic,long tails,0.66,wugs
33,4024,implied_prevalence,vague,27,generic,curly fur,0.39,feps
33,1504,implied_prevalence,accidental,28,generic,cracked claws,0.49,kazzes
33,1561,implied_prevalence,disease,29,generic,broken legs,0.74,krivels
34,20917,implied_prevalence,disease,0,generic,torn tails,0.18,trufts
34,15732,implied_prevalence,part,1,generic,fur,0.95,zorbs
34,7349,implied_prevalence,vague,2,generic,small ears,0.97,luzaks
34,10342,implied_prevalence,color,3,generic,pink teeth,0.35,ollers
34,6538,implied_prevalence,color,4,generic,yellow fur,0.46,stups
34,9818,implied_prevalence,vague,5,generic,long tails,0.53,daiths
34,8424,implied_prevalence,part,6,generic,teeth,0.93,sapers
34,11664,implied_prevalence,color,7,generic,purple feathers,0.88,pangolins
34,696554,implied_prevalence,disease,8,generic,infected ears,0.1,wugs
34,5995,implied_prevalence,vague,9,generic,curly fur,0.42,moxes
34,5748,implied_prevalence,accidental,10,generic,dusty skin,0.12,glippets
34,8444,implied_prevalence,disease,11,generic,rotten teeth,0.08,kweps
34,5669,implied_prevalence,disease,12,generic,fungus-covered fur,0.27,cheebas
34,3880,implied_prevalence,vague,13,generic,long teeth,0.4,frams
34,4178,implied_prevalence,vague,14,generic,long legs,0.61,kazzes
34,4325,implied_prevalence,accidental,15,generic,itchy tails,0.2,javs
34,5570,implied_prevalence,color,16,generic,violet skin,0.4,reesles
34,6202,implied_prevalence,accidental,17,generic,muddy feathers,0.19,crullets
34,7545,implied_prevalence,part,18,generic,ears,1,ackles
34,8226,implied_prevalence,color,19,generic,blue claws,0.74,morseths
34,8878,implied_prevalence,disease,20,generic,worn-out claws,0.33,elleps
34,3576,implied_prevalence,part,21,generic,claws,0.98,grinks
34,3714,implied_prevalence,accidental,22,generic,sore legs,0.15,mooks
34,3732,implied_prevalence,accidental,23,generic,swollen ears,0.19,feps
34,4739,implied_prevalence,part,24,generic,feathers,0.8,lorches
34,3141,implied_prevalence,part,25,generic,skin,1,blins
34,5165,implied_prevalence,vague,26,generic,big claws,0.5,plovs
34,9304,implied_prevalence,disease,27,generic,broken legs,0.09,zoovs
34,4808,implied_prevalence,accidental,28,generic,cracked claws,0.18,thups
34,4405,implied_prevalence,color,29,generic,silver legs,0.24,krivels
35,5652,implied_prevalence,disease,0,generic,broken legs,0.97,moxes
35,2778,implied_prevalence,part,1,generic,tails,0.9,pangolins
35,3217,implied_prevalence,vague,2,generic,curly fur,0.5,frams
35,3027,implied_prevalence,accidental,3,generic,muddy feathers,0.23,stups
35,2929,implied_prevalence,part,4,generic,feathers,0.74,dorbs
35,3105,implied_prevalence,disease,5,generic,rotten teeth,0.57,wugs
35,3456,implied_prevalence,disease,6,generic,fungus-covered fur,0.31,kweps
35,2929,implied_prevalence,disease,7,generic,torn feathers,0.24,feps
35,2983,implied_prevalence,disease,8,generic,worn-out claws,0.3,krivels
35,2635,implied_prevalence,accidental,9,generic,cracked claws,0.24,luzaks
35,3299,implied_prevalence,color,10,generic,pink teeth,0.92,daiths
35,3104,implied_prevalence,color,11,generic,orange tails,0.85,zorbs
35,2562,implied_prevalence,vague,12,generic,long legs,0.86,crullets
35,3041,implied_prevalence,accidental,13,generic,sore legs,0.2,mooks
35,3583,implied_prevalence,disease,14,generic,infected ears,0.09,thups
35,2284,implied_prevalence,vague,15,generic,smooth feathers,0.7,javs
35,3379,implied_prevalence,color,16,generic,blue claws,0.93,blins
35,3950,implied_prevalence,vague,17,generic,long tails,0.85,taifels
35,4062,implied_prevalence,part,18,generic,skin,1,morseths
35,3056,implied_prevalence,part,19,generic,legs,1,glippets
35,3361,implied_prevalence,part,20,generic,claws,1,trufts
35,2288,implied_prevalence,accidental,21,generic,swollen ears,0.3,ollers
35,2971,implied_prevalence,part,22,generic,teeth,1,grinks
35,3048,implied_prevalence,vague,23,generic,big claws,0.87,cheebas
35,2811,implied_prevalence,accidental,24,generic,itchy tails,0.23,elleps
35,2334,implied_prevalence,accidental,25,generic,sore teeth,0.14,reesles
35,4131,implied_prevalence,color,26,generic,purple feathers,0.83,lorches
35,3484,implied_prevalence,color,27,generic,orange ears,0.77,zoovs
35,5635,implied_prevalence,color,28,generic,yellow fur,0.73,kazzes
35,2958,implied_prevalence,vague,29,generic,rough skin,0.69,ackles
36,16218,implied_prevalence,part,0,generic,claws,0.5,javs
36,9741,implied_prevalence,vague,1,generic,big claws,0.75,zoovs
36,6716,implied_prevalence,accidental,2,generic,itchy tails,0.5,grinks
36,7674,implied_prevalence,accidental,3,generic,dusty skin,0.5,zorbs
36,5894,implied_prevalence,vague,4,generic,small ears,0.5,cheebas
36,7413,implied_prevalence,color,5,generic,silver legs,0.5,taifels
36,5895,implied_prevalence,vague,6,generic,long tails,0.5,plovs
36,8270,implied_prevalence,vague,7,generic,smooth feathers,0.25,ackles
36,5927,implied_prevalence,part,8,generic,skin,1,moxes
36,5242,implied_prevalence,part,9,generic,ears,1,glippets
36,5534,implied_prevalence,color,10,generic,blue claws,0.5,thups
36,8078,implied_prevalence,disease,11,generic,broken legs,0.1,blins
36,5501,implied_prevalence,disease,12,generic,fungus-covered fur,0.15,luzaks
36,5693,implied_prevalence,part,13,generic,teeth,1,trufts
36,7177,implied_prevalence,accidental,14,generic,sore legs,0.1,pangolins
36,3364,implied_prevalence,disease,15,generic,burned skin,0.1,frams
36,4018,implied_prevalence,part,16,generic,tails,0.85,feps
36,3609,implied_prevalence,disease,17,generic,worn-out claws,0.2,daiths
36,4904,implied_prevalence,color,18,generic,orange tails,0.3,ollers
36,5388,implied_prevalence,accidental,19,generic,muddy feathers,0.1,kazzes
36,4249,implied_prevalence,vague,20,generic,curly fur,0.5,wugs
36,5741,implied_prevalence,color,21,generic,yellow fur,0.1,crullets
36,3869,implied_prevalence,part,22,generic,legs,0.9,dorbs
36,4208,implied_prevalence,accidental,23,generic,sore teeth,0.1,stups
36,4600,implied_prevalence,color,24,generic,purple feathers,0.15,morseths
36,2260,implied_prevalence,disease,25,generic,rotten teeth,0.12,sapers
36,4129,implied_prevalence,accidental,26,generic,wet fur,0.5,elleps
36,6694,implied_prevalence,vague,27,generic,long legs,0.51,mooks
36,2340,implied_prevalence,color,28,generic,pink teeth,0.14,krivels
36,2239,implied_prevalence,disease,29,generic,infected ears,0.07,lorches
37,4468,implied_prevalence,color,0,generic,yellow fur,0.58,stups
37,2725,implied_prevalence,part,1,generic,ears,0.76,lorches
37,3335,implied_prevalence,accidental,2,generic,sore legs,0.74,plovs
37,3611,implied_prevalence,disease,3,generic,worn-out claws,0.56,pangolins
37,2535,implied_prevalence,disease,4,generic,fungus-covered fur,0.58,blins
37,2511,implied_prevalence,color,5,generic,orange ears,0.82,luzaks
37,2046,implied_prevalence,vague,6,generic,long legs,0.93,krivels
37,5898,implied_prevalence,vague,7,generic,small ears,0.97,mooks
37,3391,implied_prevalence,accidental,8,generic,swollen ears,0.43,frams
37,2785,implied_prevalence,color,9,generic,silver legs,0.68,zoovs
37,2248,implied_prevalence,disease,10,generic,infected ears,0.28,reesles
37,8750,implied_prevalence,part,11,generic,skin,1,elleps
37,7191,implied_prevalence,vague,12,generic,smooth feathers,0.68,kweps
37,4032,implied_prevalence,accidental,13,generic,dusty skin,0.61,sapers
37,2085,implied_prevalence,disease,14,generic,burned skin,0.35,feps
37,1965,implied_prevalence,vague,15,generic,rough skin,0.74,dorbs
37,4999,implied_prevalence,color,16,generic,purple feathers,0.99,daiths
37,3174,implied_prevalence,disease,17,generic,rotten teeth,0.45,thups
37,3287,implied_prevalence,vague,18,generic,long teeth,0.92,trufts
37,2894,implied_prevalence,color,19,generic,blue claws,0.81,grinks
37,3166,implied_prevalence,part,20,generic,tails,0.97,ollers
37,2833,implied_prevalence,disease,21,generic,broken legs,0.2,morseths
37,2881,implied_prevalence,vague,22,generic,big claws,0.87,crullets
37,2324,implied_prevalence,part,23,generic,fur,0.72,kazzes
37,3366,implied_prevalence,accidental,24,generic,cracked claws,0.56,glippets
37,3959,implied_prevalence,color,25,generic,pink teeth,0.55,javs
37,2952,implied_prevalence,accidental,26,generic,sore teeth,0.3,wugs
37,3980,implied_prevalence,part,27,generic,feathers,0.72,cheebas
37,3595,implied_prevalence,accidental,28,generic,muddy feathers,0.54,taifels
37,2551,implied_prevalence,part,29,generic,claws,0.9,moxes
38,34618,implied_prevalence,accidental,0,generic,wet fur,0.77,javs
38,9311,implied_prevalence,accidental,1,generic,sore teeth,0.5,luzaks
38,10672,implied_prevalence,vague,2,generic,long legs,0.99,feps
38,5248,implied_prevalence,disease,3,generic,infected ears,0.15,grinks
38,4855,implied_prevalence,color,4,generic,pink teeth,0.8,zoovs
38,8424,implied_prevalence,disease,5,generic,broken legs,0.1,morseths
38,5408,implied_prevalence,disease,6,generic,fungus-covered fur,0.75,taifels
38,5888,implied_prevalence,vague,7,generic,curly fur,0.75,mooks
38,2408,implied_prevalence,part,8,generic,teeth,1,elleps
38,5552,implied_prevalence,disease,9,generic,torn tails,0.1,frams
38,5776,implied_prevalence,accidental,10,generic,cracked claws,0.05,cheebas
38,8688,implied_prevalence,disease,11,generic,worn-out claws,0.5,wugs
38,5256,implied_prevalence,part,12,generic,ears,1,daiths
38,4360,implied_prevalence,accidental,13,generic,swollen ears,0.5,kweps
38,7727,implied_prevalence,color,14,generic,yellow fur,0.75,moxes
38,5439,implied_prevalence,color,15,generic,blue claws,0.9,trufts
38,3080,implied_prevalence,color,16,generic,purple feathers,1,ackles
38,2039,implied_prevalence,part,17,generic,tails,1,reesles
38,4656,implied_prevalence,color,18,generic,silver legs,1,kazzes
38,4840,implied_prevalence,color,19,generic,orange ears,1,plovs
38,2943,implied_prevalence,part,20,generic,skin,0.99,blins
38,2599,implied_prevalence,part,21,generic,legs,1,ollers
38,5704,implied_prevalence,disease,22,generic,rotten teeth,0.25,crullets
38,4376,implied_prevalence,accidental,23,generic,dusty skin,0.5,zorbs
38,3472,implied_prevalence,part,24,generic,feathers,1,dorbs
38,2128,implied_prevalence,vague,25,generic,small ears,1,sapers
38,6280,implied_prevalence,vague,26,generic,big claws,0.75,krivels
38,6992,implied_prevalence,accidental,27,generic,itchy tails,0.5,lorches
38,3928,implied_prevalence,vague,28,generic,long teeth,0.75,pangolins
38,8088,implied_prevalence,vague,29,generic,long tails,0.9,stups
39,7036,implied_prevalence,vague,0,generic,smooth feathers,0.9,frams
39,6720,implied_prevalence,accidental,1,generic,itchy tails,0.9,feps
39,4632,implied_prevalence,vague,2,generic,rough skin,0.94,ollers
39,6496,implied_prevalence,accidental,3,generic,wet fur,0.6,blins
39,7416,implied_prevalence,part,4,generic,feathers,0.99,cheebas
39,5199,implied_prevalence,vague,5,generic,long teeth,0.85,reesles
39,9024,implied_prevalence,accidental,6,generic,swollen ears,0.85,stups
39,8257,implied_prevalence,vague,7,generic,long legs,0.85,mooks
39,5005,implied_prevalence,part,8,generic,claws,0.95,sapers
39,4675,implied_prevalence,vague,9,generic,small ears,0.85,taifels
39,6159,implied_prevalence,color,10,generic,orange ears,0.8,zoovs
39,4820,implied_prevalence,part,11,generic,skin,1,pangolins
39,4712,implied_prevalence,part,12,generic,tails,0.95,morseths
39,3108,implied_prevalence,part,13,generic,legs,1,luzaks
39,3976,implied_prevalence,disease,14,generic,rotten teeth,0.9,plovs
39,5504,implied_prevalence,disease,15,generic,torn tails,0.9,kazzes
39,5447,implied_prevalence,vague,16,generic,long tails,0.85,kweps
39,5680,implied_prevalence,part,17,generic,fur,0.95,elleps
39,4471,implied_prevalence,color,18,generic,orange tails,0.85,krivels
39,4792,implied_prevalence,disease,19,generic,infected ears,0.7,daiths
39,5337,implied_prevalence,disease,20,generic,broken legs,0.05,moxes
39,6215,implied_prevalence,accidental,21,generic,sore teeth,0.5,lorches
39,4685,implied_prevalence,color,22,generic,blue claws,0.85,glippets
39,5770,implied_prevalence,disease,23,generic,fungus-covered fur,0.3,wugs
39,4311,implied_prevalence,color,24,generic,purple feathers,0.8,trufts
39,4129,implied_prevalence,color,25,generic,violet skin,0.85,thups
39,4888,implied_prevalence,color,26,generic,pink teeth,0.8,grinks
39,3834,implied_prevalence,accidental,27,generic,muddy feathers,0.3,javs
39,4629,implied_prevalence,disease,28,generic,worn-out claws,0.5,dorbs
39,4383,implied_prevalence,accidental,29,generic,dusty skin,0.35,zorbs
