"workerid","rt","trial_type","property_type","trial_num","category","explanation","original_response","property","response"
0,6895,"implied_prevalence","reproduction",1,"zorbs",NA,NA,"give birth underwater",0.65
0,1167,"implied_prevalence","diet",2,"daiths",NA,NA,"fish in the Hudson River",0.54
0,1400,"implied_prevalence","physical",3,"dorbs",NA,NA,"have brown fur",0.71
0,1361,"implied_prevalence","habitat",4,"grinks",NA,NA,"live in the hulls of sea vessels",0.5
0,936,"implied_prevalence","disease_self",5,"frams",NA,NA,"lose their teeth",0.48
0,1007,"implied_prevalence","behavior",6,"glippets",NA,NA,"sing beautiful songs",0.51
0,904,"implied_prevalence","psychological",7,"morseths",NA,NA,"experience empathy",0.53
0,832,"implied_prevalence","habitat",8,"luzaks",NA,NA,"live in high-rise buildings",0.52
0,1679,"implied_prevalence","diet",9,"feps",NA,NA,"eat insects",0.57
0,775,"implied_prevalence","disease_self",10,"kweps",NA,NA,"get addicted to nicotine",0.53
0,712,"implied_prevalence","reproduction",11,"stups",NA,NA,"have a menstrual cycle",0.55
0,1096,"implied_prevalence","disease_self",12,"sapers",NA,NA,"have seizures",0.53
0,737,"implied_prevalence","disease_other",13,"elleps",NA,NA,"transmit HIV",0.52
0,734,"implied_prevalence","diet",14,"dunkels",NA,NA,"eat human food",0.52
0,745,"implied_prevalence","reproduction",15,"crullets",NA,NA,"lay eggs in other birds&quotechar nests",0.53
0,1312,"implied_prevalence","behavior_aggressive",16,"dobles",NA,NA,"steal farmers&quotechar crops",0.53
0,918,"implied_prevalence","diet",17,"mooks",NA,NA,"eat garbage",0.54
0,1113,"implied_prevalence","behavior_aggressive",18,"thups",NA,NA,"get in fights with other animals",0.54
0,1087,"implied_prevalence","physical",19,"javs",NA,NA,"have very long wings",0.57
0,1576,"implied_prevalence","behavior_aggressive",20,"fendles",NA,NA,"capture other animals&quotechar territory",0.56
0,753,"implied_prevalence","reproduction",21,"trufts",NA,NA,"lay eggs without needing fertilization",0.53
0,904,"implied_prevalence","diet",22,"cheebas",NA,NA,"eat cannabis",0.55
0,896,"implied_prevalence","physical",23,"moxes",NA,NA,"have an exquisite sense of smell",0.49
0,824,"implied_prevalence","psychological",24,"ludinos",NA,NA,"know how to open doors",0.52
0,1128,"implied_prevalence","diet",25,"ackles",NA,NA,"eat grass",0.53
0,728,"implied_prevalence","physical",26,"plovs",NA,NA,"have intensely beautiful feathers",0.52
0,736,"implied_prevalence","disease_self",27,"wugs",NA,NA,"get dandruff",0.51
0,1152,"implied_prevalence","behavior",28,"lorches",NA,NA,"do handstands to scare off predators",0.54
0,952,"implied_prevalence","behavior",29,"zoovs",NA,NA,"ride the subway",0.54
0,1111,"implied_prevalence","habitat",30,"krivels",NA,NA,"live in trees",0.51
0,978,"implied_prevalence","disease_self",31,"blins",NA,NA,"have strange genetic mutations",0.51
0,1255,"implied_prevalence","habitat",32,"pangolins",NA,NA,"live in zoos",0.51
0,920,"implied_prevalence","behavior_aggressive",33,"reesles",NA,NA,"torture other animals",0.59
0,3695,"implied_prevalence","psychological",34,"kazzes",NA,NA,"are intelligent",0.42
0,887,"implied_prevalence","behavior_aggressive",35,"taifels",NA,NA,"pound their chests to display dominance",0.5
0,1201,"implied_prevalence","behavior_aggressive",36,"ollers",NA,NA,"hunt other animals",0.52
0,11445,"explain_responses","psychological",1,"kazzes","Guessed.",0.42,"are intelligent",0.42
0,4895,"explain_responses","disease_self",2,"frams","Guessed.",0.48,"lose their teeth",0.48
0,5079,"explain_responses","physical",3,"moxes","Guessed.",0.49,"have an exquisite sense of smell",0.49
1,7349,"implied_prevalence","behavior",1,"ollers",NA,NA,"swim in shallow pools",0.95
1,6324,"implied_prevalence","physical",2,"morseths",NA,NA,"live to be five hundred years old",0.86
1,6747,"implied_prevalence","behavior",3,"sapers",NA,NA,"perform in the circus",0.2
1,3187,"implied_prevalence","reproduction",4,"frams",NA,NA,"give birth underwater",1
1,5420,"implied_prevalence","behavior_aggressive",5,"glippets",NA,NA,"get in fights with other animals",0.75
1,5179,"implied_prevalence","disease_self",6,"dobles",NA,NA,"have strange genetic mutations",1
1,5545,"implied_prevalence","behavior",7,"fendles",NA,NA,"fly into building windows",0.6
1,6262,"implied_prevalence","disease_other",8,"cheebas",NA,NA,"carry malaria",0.15
1,6528,"implied_prevalence","diet",9,"javs",NA,NA,"drink soda",0.75
1,3592,"implied_prevalence","reproduction",10,"lorches",NA,NA,"lay eggs without needing fertilization",1
1,7816,"implied_prevalence","psychological",11,"dorbs",NA,NA,"know how to open doors",1
1,7928,"implied_prevalence","diet",12,"crullets",NA,NA,"fish in the Hudson River",0.7
1,3567,"implied_prevalence","behavior_aggressive",13,"kazzes",NA,NA,"pound their chests to display dominance",1
1,4854,"implied_prevalence","diet",14,"elleps",NA,NA,"eat cannabis",0.85
1,4542,"implied_prevalence","disease_self",15,"kweps",NA,NA,"get dandruff",0.77
1,3912,"implied_prevalence","behavior",16,"thups",NA,NA,"use tools",0.9
1,2489,"implied_prevalence","reproduction",17,"trufts",NA,NA,"have a menstrual cycle",1
1,3599,"implied_prevalence","psychological",18,"stups",NA,NA,"develop phobias",0.8
1,4077,"implied_prevalence","diet",19,"plovs",NA,NA,"eat insects",1
1,3622,"implied_prevalence","behavior",20,"wugs",NA,NA,"ride the subway",0.6
1,2457,"implied_prevalence","physical",21,"dunkels",NA,NA,"have spots",1
1,3778,"implied_prevalence","diet",22,"moxes",NA,NA,"cannibalize each other",0.95
1,8477,"implied_prevalence","habitat",23,"reesles",NA,NA,"live in high-rise buildings",0.85
1,2718,"implied_prevalence","physical",24,"ludinos",NA,NA,"have intensely beautiful feathers",1
1,18186,"implied_prevalence","diet",25,"grinks",NA,NA,"feed on the carcasses of dead animals",0.92
1,6890,"implied_prevalence","behavior_aggressive",26,"krivels",NA,NA,"capture other animals&quotechar territory",0.78
1,4534,"implied_prevalence","psychological",27,"ackles",NA,NA,"know how to ride bicycles",0.6
1,3408,"implied_prevalence","behavior",28,"pangolins",NA,NA,"sing beautiful songs",0.88
1,3527,"implied_prevalence","reproduction",29,"feps",NA,NA,"have dozens of sexual partners",0.94
1,3094,"implied_prevalence","disease_other",30,"zorbs",NA,NA,"carry Lyme disease",0.35
1,5453,"implied_prevalence","disease_other",31,"taifels",NA,NA,"transmit HIV",0.35
1,4257,"implied_prevalence","disease_self",32,"blins",NA,NA,"get cancer",0.7
1,2947,"implied_prevalence","psychological",33,"zoovs",NA,NA,"experience emotions",1
1,2600,"implied_prevalence","reproduction",34,"luzaks",NA,NA,"attract mates by secreting pheromones",1
1,4132,"implied_prevalence","reproduction",35,"daiths",NA,NA,"lay eggs in other birds&quotechar nests",0.95
1,2703,"implied_prevalence","disease_other",36,"mooks",NA,NA,"transmit rabies",0.37
1,39950,"explain_responses","behavior",1,"sapers","I figured that they are a kind of animal that is used in the circus but that doesn&quotechart mean that all of the animals in that species are circus performers.",0.2,"perform in the circus",0.2
1,24962,"explain_responses","disease_other",2,"mooks","I think Mooks are capable of transmitting rabies, but that doesn&quotechart mean that they all do, only a percentage of them.",0.37,"transmit rabies",0.37
1,21474,"explain_responses","disease_other",3,"zorbs","I think the animal species is capable of carrying the disease, but that doesn&quotechart mean they all do.",0.35,"carry Lyme disease",0.35
1,31617,"explain_responses","disease_other",4,"taifels","I think that the species can transmit HIV, but that doesn&quotechart mean every animal in the species does, only a percentage.",0.35,"transmit HIV",0.35
1,35141,"explain_responses","disease_other",5,"cheebas","I think this species is capable of carrying malaria, but that doesn&quotechart mean that every animal in that species carries it, only a certain percentage.",0.15,"carry malaria",0.36
2,2545,"implied_prevalence","habitat",1,"blins",NA,NA,"live in urban areas",0.47
2,1123,"implied_prevalence","behavior",2,"plovs",NA,NA,"swim in shallow pools",0.67
2,733,"implied_prevalence","behavior",3,"kweps",NA,NA,"sing beautiful songs",0.33
2,943,"implied_prevalence","physical",4,"pangolins",NA,NA,"have intensely beautiful feathers",0.5
2,770,"implied_prevalence","behavior_aggressive",5,"elleps",NA,NA,"capture other animals&quotechar territory",0.72
2,834,"implied_prevalence","physical",6,"frams",NA,NA,"have spots",0.24
2,1486,"implied_prevalence","psychological",7,"dunkels",NA,NA,"are intelligent",0.76
2,840,"implied_prevalence","behavior_aggressive",8,"moxes",NA,NA,"get in fights with other animals",0.6
2,700,"implied_prevalence","behavior",9,"trufts",NA,NA,"ride the subway",0.39
2,794,"implied_prevalence","habitat",10,"feps",NA,NA,"live in zoos",0.28
2,834,"implied_prevalence","reproduction",11,"glippets",NA,NA,"lay eggs in other birds&quotechar nests",0.62
2,958,"implied_prevalence","behavior",12,"luzaks",NA,NA,"do handstands to scare off predators",0.76
2,1689,"implied_prevalence","disease_self",13,"wugs",NA,NA,"lose their teeth",0.28
2,668,"implied_prevalence","psychological",14,"dobles",NA,NA,"are afraid of loud noises",0.55
2,693,"implied_prevalence","behavior_aggressive",15,"kazzes",NA,NA,"steal farmers&quotechar crops",0.21
2,653,"implied_prevalence","disease_self",16,"zoovs",NA,NA,"go bald",0.7
2,1272,"implied_prevalence","diet",17,"dorbs",NA,NA,"eat grass",0.53
2,951,"implied_prevalence","reproduction",18,"lorches",NA,NA,"lay eggs without needing fertilization",0.26
2,1101,"implied_prevalence","behavior",19,"morseths",NA,NA,"use tools",0.69
2,676,"implied_prevalence","diet",20,"ackles",NA,NA,"eat human food",0.52
2,1432,"implied_prevalence","psychological",21,"javs",NA,NA,"know how to ride bicycles",0.24
2,8396,"implied_prevalence","psychological",22,"crullets",NA,NA,"know how to open doors",0.64
2,1595,"implied_prevalence","disease_self",23,"ollers",NA,NA,"get dandruff",0.23
2,1463,"implied_prevalence","behavior",24,"thups",NA,NA,"like to cuddle",0.57
2,715,"implied_prevalence","habitat",25,"stups",NA,NA,"live in the hulls of sea vessels",0.79
2,926,"implied_prevalence","diet",26,"ludinos",NA,NA,"feed on the carcasses of dead animals",0.43
2,1368,"implied_prevalence","physical",27,"taifels",NA,NA,"live to be twenty years old",0.21
2,810,"implied_prevalence","behavior_aggressive",28,"grinks",NA,NA,"attack hikers",0.58
2,983,"implied_prevalence","reproduction",29,"cheebas",NA,NA,"give birth underwater",0.76
2,1036,"implied_prevalence","disease_other",30,"krivels",NA,NA,"transmit HIV",0.27
2,1163,"implied_prevalence","behavior_aggressive",31,"daiths",NA,NA,"torture other animals",0.5
2,1076,"implied_prevalence","habitat",32,"sapers",NA,NA,"live in trees",0.8
2,1370,"implied_prevalence","psychological",33,"reesles",NA,NA,"are afraid of dogs",0.71
2,2640,"implied_prevalence","physical",34,"fendles",NA,NA,"have an exquisite sense of smell",0.88
2,1068,"implied_prevalence","reproduction",35,"zorbs",NA,NA,"have dozens of sexual partners",0.63
2,2075,"implied_prevalence","physical",36,"mooks",NA,NA,"live to be five hundred years old",0.77
2,16979,"explain_responses","disease_self",1,"wugs","I don&quotechart think all of them lose their teeth.",0.28,"lose their teeth",0.28
2,8902,"explain_responses","diet",2,"ludinos","They feed on the carcasses.",0.43,"feed on the carcasses of dead animals",0.43
2,6554,"explain_responses","disease_self",3,"ollers","Not all get dandruff.",0.23,"get dandruff",0.23
2,4149,"explain_responses","physical",4,"frams","They have spots.",0.24,"have spots",0.24
2,4684,"explain_responses","habitat",5,"blins","Some live in urban areas.",0.47,"live in urban areas",0.47
3,5319,"implied_prevalence","behavior",1,"glippets",NA,NA,"use tools",0.9
3,4766,"implied_prevalence","diet",2,"reesles",NA,NA,"eat candy wrappers",0.83
3,5195,"implied_prevalence","behavior_aggressive",3,"dobles",NA,NA,"capture other animals&quotechar territory",1
3,4105,"implied_prevalence","physical",4,"feps",NA,NA,"have an exquisite sense of smell",0.91
3,2399,"implied_prevalence","disease_other",5,"ollers",NA,NA,"transmit rabies",0.63
3,1862,"implied_prevalence","diet",6,"blins",NA,NA,"cannibalize each other",0.63
3,5407,"implied_prevalence","diet",7,"sapers",NA,NA,"eat grass",1
3,2652,"implied_prevalence","behavior",8,"grinks",NA,NA,"ride the subway",0.6
3,3309,"implied_prevalence","disease_self",9,"mooks",NA,NA,"get cancer",0.33
3,3115,"implied_prevalence","disease_other",10,"dorbs",NA,NA,"transmit HIV",0.31
3,2427,"implied_prevalence","disease_other",11,"kazzes",NA,NA,"carry Lyme disease",0.75
3,3524,"implied_prevalence","physical",12,"morseths",NA,NA,"live to be five hundred years old",0.93
3,7065,"implied_prevalence","diet",13,"lorches",NA,NA,"eat human food",1
3,6027,"implied_prevalence","behavior",14,"kweps",NA,NA,"do handstands to scare off predators",1
3,6376,"implied_prevalence","habitat",15,"elleps",NA,NA,"live in the hulls of sea vessels",0.79
3,3923,"implied_prevalence","behavior",16,"dunkels",NA,NA,"swim in shallow pools",0.55
3,3356,"implied_prevalence","psychological",17,"trufts",NA,NA,"mourn their dead",1
3,2814,"implied_prevalence","reproduction",18,"stups",NA,NA,"lay eggs without needing fertilization",1
3,2116,"implied_prevalence","disease_self",19,"plovs",NA,NA,"get dandruff",0.35
3,1864,"implied_prevalence","behavior",20,"luzaks",NA,NA,"like to cuddle",0.42
3,2697,"implied_prevalence","behavior",21,"zorbs",NA,NA,"fly into building windows",0.75
3,3417,"implied_prevalence","disease_self",22,"pangolins",NA,NA,"lose their teeth",1
3,2493,"implied_prevalence","behavior_aggressive",23,"crullets",NA,NA,"attack hikers",0.67
3,1941,"implied_prevalence","disease_self",24,"moxes",NA,NA,"have seizures",0.38
3,2376,"implied_prevalence","physical",25,"taifels",NA,NA,"have intensely beautiful feathers",1
3,5988,"implied_prevalence","diet",26,"wugs",NA,NA,"fish in the Hudson River",0.52
3,3134,"implied_prevalence","diet",27,"fendles",NA,NA,"feed on the carcasses of dead animals",0.84
3,5706,"implied_prevalence","behavior_aggressive",28,"zoovs",NA,NA,"carry out premeditated murder",0.23
3,2290,"implied_prevalence","physical",29,"ludinos",NA,NA,"live to be a hundred years old",0.83
3,4587,"implied_prevalence","habitat",30,"javs",NA,NA,"live in urban areas",0.65
3,3601,"implied_prevalence","diet",31,"daiths",NA,NA,"eat cannabis",0.55
3,3262,"implied_prevalence","psychological",32,"frams",NA,NA,"are afraid of dogs",0.88
3,3422,"implied_prevalence","physical",33,"cheebas",NA,NA,"live to be twenty years old",0.7
3,2231,"implied_prevalence","disease_self",34,"krivels",NA,NA,"get addicted to nicotine",0.35
3,2544,"implied_prevalence","diet",35,"thups",NA,NA,"drink alcohol left behind by tourists",0.39
3,2240,"implied_prevalence","habitat",36,"ackles",NA,NA,"live in trees",0.91
3,16076,"explain_responses","disease_other",1,"dorbs","It doesn&quotechart seem very likely, so I gave that response.",0.31,"transmit HIV",0.31
3,14415,"explain_responses","behavior",2,"luzaks","It seems odd that an animal likes to cuddle, so I gave that response.",0.42,"like to cuddle",0.42
3,19836,"explain_responses","disease_self",3,"krivels","This seems very odd.  I didn&quotechart know how to respond.",0.35,"get addicted to nicotine",0.35
3,18708,"explain_responses","disease_self",4,"mooks","I just felt that this was the right answer.",0.33,"get cancer",0.33
3,12256,"explain_responses","disease_self",5,"plovs","I have never seen an animal with dandruff.",0.35,"get dandruff",0.35
4,5078,"implied_prevalence","psychological",1,"grinks",NA,NA,"know when earthquakes are about to happen",1
4,3191,"implied_prevalence","behavior_aggressive",2,"luzaks",NA,NA,"capture other animals&quotechar territory",1
4,2680,"implied_prevalence","physical",3,"morseths",NA,NA,"have very long wings",1
4,2847,"implied_prevalence","diet",4,"fendles",NA,NA,"drink soda",1
4,2620,"implied_prevalence","behavior_aggressive",5,"javs",NA,NA,"torture other animals",1
4,3068,"implied_prevalence","psychological",6,"daiths",NA,NA,"have personalities",1
4,3480,"implied_prevalence","behavior",7,"reesles",NA,NA,"swim in shallow pools",1
4,47223,"implied_prevalence","diet",8,"kweps",NA,NA,"cannibalize each other",1
4,2615,"implied_prevalence","psychological",9,"stups",NA,NA,"mourn their dead",1
4,3026,"implied_prevalence","disease_self",10,"ludinos",NA,NA,"get cancer",1
4,36652,"implied_prevalence","behavior_aggressive",11,"sapers",NA,NA,"attack hikers",1
4,2179,"implied_prevalence","diet",12,"zoovs",NA,NA,"eat garbage",1
4,2140,"implied_prevalence","disease_self",13,"pangolins",NA,NA,"go bald",1
4,11104,"implied_prevalence","physical",14,"trufts",NA,NA,"live to be five hundred years old",0.9
4,5033,"implied_prevalence","habitat",15,"zorbs",NA,NA,"live in zoos",1
4,2706,"implied_prevalence","behavior",16,"elleps",NA,NA,"use tools",1
4,2218,"implied_prevalence","psychological",17,"glippets",NA,NA,"are afraid of dogs",1
4,2721,"implied_prevalence","habitat",18,"feps",NA,NA,"live in high-rise buildings",1
4,2818,"implied_prevalence","physical",19,"moxes",NA,NA,"have brown fur",1
4,2474,"implied_prevalence","diet",20,"wugs",NA,NA,"eat people",1
4,35435,"implied_prevalence","behavior",21,"kazzes",NA,NA,"like to cuddle",1
4,2020,"implied_prevalence","disease_self",22,"dorbs",NA,NA,"develop back problems",1
4,1964,"implied_prevalence","behavior_aggressive",23,"blins",NA,NA,"steal farmers&quotechar crops",1
4,2024,"implied_prevalence","habitat",24,"ollers",NA,NA,"live in trees",1
4,2134,"implied_prevalence","behavior",25,"crullets",NA,NA,"do handstands to scare off predators",1
4,2912,"implied_prevalence","physical",26,"thups",NA,NA,"have spots",1
4,2606,"implied_prevalence","diet",27,"dobles",NA,NA,"drink alcohol left behind by tourists",1
4,2213,"implied_prevalence","reproduction",28,"ackles",NA,NA,"lay eggs in other birds&quotechar nests",1
4,2407,"implied_prevalence","disease_self",29,"frams",NA,NA,"get dandruff",1
4,2046,"implied_prevalence","disease_self",30,"plovs",NA,NA,"lose their teeth",1
4,2326,"implied_prevalence","disease_other",31,"lorches",NA,NA,"carry Lyme disease",1
4,2136,"implied_prevalence","behavior",32,"taifels",NA,NA,"perform in the circus",1
4,3039,"implied_prevalence","diet",33,"cheebas",NA,NA,"eat insects",1
4,2788,"implied_prevalence","psychological",34,"krivels",NA,NA,"are afraid of loud noises",1
4,2010,"implied_prevalence","psychological",35,"mooks",NA,NA,"are intelligent",1
4,2244,"implied_prevalence","behavior",36,"dunkels",NA,NA,"ride the subway",1
5,5174,"implied_prevalence","diet",1,"pangolins",NA,NA,"eat insects",0.74
5,5628,"implied_prevalence","reproduction",2,"ollers",NA,NA,"have a menstrual cycle",1
5,4039,"implied_prevalence","diet",3,"ludinos",NA,NA,"drink soda",1
5,2700,"implied_prevalence","diet",4,"zoovs",NA,NA,"eat grass",0.93
5,2717,"implied_prevalence","disease_self",5,"stups",NA,NA,"have strange genetic mutations",0.67
5,1825,"implied_prevalence","diet",6,"plovs",NA,NA,"eat candy wrappers",0.54
5,1373,"implied_prevalence","psychological",7,"mooks",NA,NA,"are intelligent",0.86
5,1823,"implied_prevalence","psychological",8,"thups",NA,NA,"know how to ride bicycles",1
5,1846,"implied_prevalence","psychological",9,"fendles",NA,NA,"experience empathy",0.72
5,5034,"implied_prevalence","disease_other",10,"ackles",NA,NA,"carry Lyme disease",0.33
5,1843,"implied_prevalence","behavior_aggressive",11,"reesles",NA,NA,"capture other animals&quotechar territory",0.49
5,1271,"implied_prevalence","psychological",12,"trufts",NA,NA,"experience emotions",0.58
5,2322,"implied_prevalence","behavior",13,"dorbs",NA,NA,"fly into building windows",0.18
5,2781,"implied_prevalence","behavior",14,"frams",NA,NA,"swim in shallow pools",0.89
5,2376,"implied_prevalence","psychological",15,"crullets",NA,NA,"develop phobias",0.3
5,1684,"implied_prevalence","diet",16,"morseths",NA,NA,"eat garbage",0.39
5,2059,"implied_prevalence","disease_self",17,"javs",NA,NA,"get dandruff",0.15
5,1750,"implied_prevalence","behavior",18,"zorbs",NA,NA,"chase their tails",0.98
5,1902,"implied_prevalence","psychological",19,"blins",NA,NA,"have personalities",0.96
5,1297,"implied_prevalence","physical",20,"glippets",NA,NA,"have brown fur",0.73
5,1569,"implied_prevalence","behavior",21,"daiths",NA,NA,"play with bottlecaps",0.41
5,1479,"implied_prevalence","disease_self",22,"krivels",NA,NA,"develop back problems",0.23
5,1368,"implied_prevalence","habitat",23,"feps",NA,NA,"live in urban areas",0.69
5,2110,"implied_prevalence","behavior",24,"grinks",NA,NA,"use tools",0.67
5,2341,"implied_prevalence","diet",25,"luzaks",NA,NA,"eat cannabis",0.58
5,2039,"implied_prevalence","physical",26,"dobles",NA,NA,"live to be twenty years old",0.71
5,4468,"implied_prevalence","reproduction",27,"moxes",NA,NA,"get erections",0.96
5,2187,"implied_prevalence","psychological",28,"sapers",NA,NA,"are afraid of dogs",0.87
5,3539,"implied_prevalence","behavior_aggressive",29,"dunkels",NA,NA,"torture other animals",0.69
5,1582,"implied_prevalence","habitat",30,"cheebas",NA,NA,"live in the hulls of sea vessels",0.39
5,1131,"implied_prevalence","behavior",31,"elleps",NA,NA,"sing beautiful songs",0.79
5,772,"implied_prevalence","psychological",32,"wugs",NA,NA,"are afraid of loud noises",0.45
5,863,"implied_prevalence","disease_other",33,"kweps",NA,NA,"carry malaria",0.76
5,739,"implied_prevalence","diet",34,"taifels",NA,NA,"feed on the carcasses of dead animals",0.32
5,910,"implied_prevalence","disease_self",35,"lorches",NA,NA,"have seizures",0.79
5,649,"implied_prevalence","habitat",36,"kazzes",NA,NA,"live in zoos",0.53
5,23307,"explain_responses","behavior_aggressive",1,"reesles","I think not all of them capture other animal&quotechars territory",0.49,"capture other animals&quotechar territory",0.5
5,19350,"explain_responses","habitat",2,"cheebas","I&quotecharm sure not every Cheebas live there.",0.39,"live in the hulls of sea vessels",0.29
5,18488,"explain_responses","diet",3,"taifels","I think they also eat other things not just that",0.32,"feed on the carcasses of dead animals",0.32
5,15400,"explain_responses","diet",4,"morseths","They also eat other things not just garbage",0.39,"eat garbage",0.39
5,26825,"explain_responses","psychological",5,"wugs","Maybe they are afraid of other things",0.45,"are afraid of loud noises",0.45
6,2138,"implied_prevalence","behavior",1,"blins",NA,NA,"chase their tails",0.5
6,959,"implied_prevalence","behavior_aggressive",2,"taifels",NA,NA,"carry out premeditated murder",0.66
6,781,"implied_prevalence","behavior",3,"lorches",NA,NA,"swim in shallow pools",0.57
6,1186,"implied_prevalence","diet",4,"dorbs",NA,NA,"eat grass",0.45
6,1103,"implied_prevalence","reproduction",5,"ackles",NA,NA,"have dozens of sexual partners",0.7
6,2103,"implied_prevalence","behavior",6,"frams",NA,NA,"use tools",0.97
6,2332,"implied_prevalence","disease_other",7,"fendles",NA,NA,"transmit rabies",0.21
6,1443,"implied_prevalence","diet",8,"javs",NA,NA,"eat people",0.86
6,1109,"implied_prevalence","diet",9,"dunkels",NA,NA,"eat garbage",0.34
6,1015,"implied_prevalence","behavior_aggressive",10,"morseths",NA,NA,"hunt other animals",0.84
6,969,"implied_prevalence","physical",11,"sapers",NA,NA,"have an exquisite sense of smell",0.92
6,1266,"implied_prevalence","behavior_aggressive",12,"glippets",NA,NA,"capture other animals&quotechar territory",0.99
6,28029,"implied_prevalence","behavior",13,"elleps",NA,NA,"play with bottlecaps",0.58
6,590,"implied_prevalence","psychological",14,"kweps",NA,NA,"know how to ride bicycles",0.77
6,1224,"implied_prevalence","diet",15,"krivels",NA,NA,"eat cannabis",0.5
6,906,"implied_prevalence","behavior",16,"ollers",NA,NA,"fly into building windows",0.66
6,782,"implied_prevalence","disease_self",17,"wugs",NA,NA,"go bald",0.75
6,1241,"implied_prevalence","psychological",18,"zoovs",NA,NA,"are intelligent",0.47
6,586,"implied_prevalence","reproduction",19,"pangolins",NA,NA,"give birth underwater",0.68
6,635,"implied_prevalence","habitat",20,"crullets",NA,NA,"live in zoos",0.82
6,644,"implied_prevalence","behavior_aggressive",21,"daiths",NA,NA,"torture other animals",0.43
6,622,"implied_prevalence","psychological",22,"luzaks",NA,NA,"develop phobias",0.68
6,716,"implied_prevalence","habitat",23,"ludinos",NA,NA,"live in urban areas",0.86
6,2547,"implied_prevalence","psychological",24,"zorbs",NA,NA,"mourn their dead",0.89
6,1388,"implied_prevalence","reproduction",25,"grinks",NA,NA,"have a menstrual cycle",1
6,882,"implied_prevalence","behavior_aggressive",26,"thups",NA,NA,"steal farmers&quotechar crops",0.36
6,615,"implied_prevalence","diet",27,"kazzes",NA,NA,"cannibalize each other",0.64
6,662,"implied_prevalence","disease_self",28,"feps",NA,NA,"lose their teeth",0.77
6,645,"implied_prevalence","habitat",29,"plovs",NA,NA,"live in the hulls of sea vessels",0.42
6,648,"implied_prevalence","behavior",30,"reesles",NA,NA,"ride the subway",0.67
6,667,"implied_prevalence","disease_other",31,"stups",NA,NA,"carry malaria",0.61
6,610,"implied_prevalence","diet",32,"cheebas",NA,NA,"eat candy wrappers",0.63
6,647,"implied_prevalence","diet",33,"trufts",NA,NA,"feed on the carcasses of dead animals",0.6
6,637,"implied_prevalence","behavior",34,"dobles",NA,NA,"sleep during the day",0.38
6,645,"implied_prevalence","disease_self",35,"mooks",NA,NA,"get cancer",0.59
6,1094,"implied_prevalence","reproduction",36,"moxes",NA,NA,"attract mates by secreting pheromones",0.39
6,12778,"explain_responses","habitat",1,"plovs","I think it only makes sense that less than half do it",0.42,"live in the hulls of sea vessels",0.42
6,9472,"explain_responses","diet",2,"dorbs","It&quotechars a very educated guess number",0.45,"eat grass",0.45
6,8851,"explain_responses","psychological",3,"zoovs","I think most of them are and some aren&quotechart.",0.47,"are intelligent",0.47
6,13067,"explain_responses","behavior_aggressive",4,"daiths","This seems about right because of the split there could be between them",0.43,"torture other animals",0.43
6,12241,"explain_responses","behavior",5,"dobles","Probably less than half sleep during the day",0.38,"sleep during the day",0.38
7,13363,"implied_prevalence","reproduction",1,"frams",NA,NA,"attract mates by secreting pheromones",0.5
7,3394,"implied_prevalence","disease_other",2,"taifels",NA,NA,"transmit HIV",1
7,6053,"implied_prevalence","reproduction",3,"sapers",NA,NA,"lay eggs without needing fertilization",0.5
7,7303,"implied_prevalence","habitat",4,"zorbs",NA,NA,"live in high-rise buildings",0.8
7,5767,"implied_prevalence","behavior",5,"pangolins",NA,NA,"sing beautiful songs",0.5
7,3862,"implied_prevalence","disease_self",6,"crullets",NA,NA,"lose their teeth",0.98
7,5542,"implied_prevalence","diet",7,"dobles",NA,NA,"cannibalize each other",0.2
7,4797,"implied_prevalence","physical",8,"krivels",NA,NA,"live to be five hundred years old",0.33
7,10086,"implied_prevalence","disease_self",9,"ludinos",NA,NA,"get addicted to nicotine",0.24
7,4312,"implied_prevalence","disease_self",10,"blins",NA,NA,"get cancer",0.14
7,6966,"implied_prevalence","disease_self",11,"mooks",NA,NA,"have strange genetic mutations",0.06
7,5272,"implied_prevalence","behavior",12,"ollers",NA,NA,"ride the subway",0.2
7,4594,"implied_prevalence","habitat",13,"moxes",NA,NA,"live in trees",0.97
7,7661,"implied_prevalence","psychological",14,"thups",NA,NA,"mourn their dead",0.94
7,5987,"implied_prevalence","physical",15,"ackles",NA,NA,"have brown fur",1
7,3813,"implied_prevalence","reproduction",16,"luzaks",NA,NA,"lay eggs in other birds&quotechar nests",0.51
7,3626,"implied_prevalence","behavior",17,"trufts",NA,NA,"chase their tails",0.51
7,5036,"implied_prevalence","psychological",18,"elleps",NA,NA,"are intelligent",0.7
7,3282,"implied_prevalence","diet",19,"zoovs",NA,NA,"eat human food",0.31
7,4038,"implied_prevalence","behavior_aggressive",20,"kazzes",NA,NA,"attack hikers",0.23
7,4967,"implied_prevalence","physical",21,"cheebas",NA,NA,"live to be twenty years old",0.32
7,6322,"implied_prevalence","disease_other",22,"javs",NA,NA,"carry malaria",0.25
7,4147,"implied_prevalence","behavior_aggressive",23,"grinks",NA,NA,"get in fights with other animals",0.83
7,5172,"implied_prevalence","psychological",24,"lorches",NA,NA,"develop phobias",0.22
7,4302,"implied_prevalence","behavior",25,"wugs",NA,NA,"fly into building windows",0.2
7,3378,"implied_prevalence","physical",26,"morseths",NA,NA,"have intensely beautiful feathers",0.79
7,3771,"implied_prevalence","behavior",27,"daiths",NA,NA,"use tools",0.95
7,4409,"implied_prevalence","diet",28,"plovs",NA,NA,"eat cannabis",0.97
7,4164,"implied_prevalence","behavior",29,"dorbs",NA,NA,"do handstands to scare off predators",0.97
7,3593,"implied_prevalence","diet",30,"fendles",NA,NA,"eat people",0.11
7,8554,"implied_prevalence","behavior_aggressive",31,"stups",NA,NA,"torture other animals",0.34
7,3176,"implied_prevalence","psychological",32,"dunkels",NA,NA,"experience empathy",0.97
7,3745,"implied_prevalence","reproduction",33,"glippets",NA,NA,"have dozens of sexual partners",0.99
7,4995,"implied_prevalence","physical",34,"kweps",NA,NA,"live to be a hundred years old",0.27
7,3352,"implied_prevalence","diet",35,"reesles",NA,NA,"eat grass",1
7,5013,"implied_prevalence","disease_self",36,"feps",NA,NA,"get dandruff",0.49
7,27443,"explain_responses","disease_self",1,"mooks","Genetic mutations seem fairly rare, so even if they&quotecharre &quotecharcommon&quotechar enough to remark on, it&quotechars still a low percentage of the population.",0.06,"have strange genetic mutations",0.06
7,19256,"explain_responses","physical",2,"krivels","Most probably die of something else before senescence. In fact I gave way too high a number. ",0.33,"live to be five hundred years old",0.09
7,20561,"explain_responses","disease_self",3,"feps","I assume dandruff doesn&quotechart have a 100% rate so I just gave a number around the middle. ",0.49,"get dandruff",0.49
7,16967,"explain_responses","psychological",4,"lorches","While it may be common I don&quotechart think every individual does so I gave a relatively low response. ",0.22,"develop phobias",0.22
7,21675,"explain_responses","disease_self",5,"ludinos","There are probably many of them who don&quotechart ever come into contact with meaningful amounts of nicotine so I gave a middling low percentage.",0.24,"get addicted to nicotine",0.24
8,6294,"implied_prevalence","behavior_aggressive",1,"elleps",NA,NA,"pound their chests to display dominance",1
8,1702,"implied_prevalence","reproduction",2,"taifels",NA,NA,"lay eggs without needing fertilization",1
8,12156,"implied_prevalence","diet",3,"thups",NA,NA,"feed on the carcasses of dead animals",1
8,2008,"implied_prevalence","behavior",4,"glippets",NA,NA,"perform in the circus",1
8,2166,"implied_prevalence","psychological",5,"moxes",NA,NA,"experience empathy",1
8,2728,"implied_prevalence","reproduction",6,"grinks",NA,NA,"attract mates by secreting pheromones",1
8,3776,"implied_prevalence","reproduction",7,"wugs",NA,NA,"give birth underwater",1
8,2032,"implied_prevalence","behavior",8,"ackles",NA,NA,"do handstands to scare off predators",1
8,3760,"implied_prevalence","physical",9,"sapers",NA,NA,"live to be five hundred years old",1
8,2182,"implied_prevalence","disease_other",10,"feps",NA,NA,"transmit HIV",1
8,4352,"implied_prevalence","disease_self",11,"zorbs",NA,NA,"get dandruff",1
8,1686,"implied_prevalence","behavior",12,"krivels",NA,NA,"swim in shallow pools",1
8,1730,"implied_prevalence","behavior",13,"ludinos",NA,NA,"ride the subway",1
8,1630,"implied_prevalence","disease_self",14,"luzaks",NA,NA,"lose their teeth",1
8,3872,"implied_prevalence","diet",15,"ollers",NA,NA,"eat grass",0.98
8,2294,"implied_prevalence","psychological",16,"cheebas",NA,NA,"are intelligent",1
8,2674,"implied_prevalence","diet",17,"frams",NA,NA,"eat cannabis",1
8,7310,"implied_prevalence","diet",18,"blins",NA,NA,"cannibalize each other",1
8,2456,"implied_prevalence","physical",19,"fendles",NA,NA,"live to be twenty years old",1
8,2070,"implied_prevalence","psychological",20,"mooks",NA,NA,"know when earthquakes are about to happen",1
8,2160,"implied_prevalence","disease_other",21,"daiths",NA,NA,"carry malaria",1
8,1494,"implied_prevalence","physical",22,"kweps",NA,NA,"have spots",1
8,2088,"implied_prevalence","disease_self",23,"dobles",NA,NA,"get addicted to nicotine",1
8,1736,"implied_prevalence","psychological",24,"plovs",NA,NA,"are afraid of loud noises",1
8,2214,"implied_prevalence","reproduction",25,"javs",NA,NA,"lay eggs in other birds&quotechar nests",1
8,2922,"implied_prevalence","behavior",26,"trufts",NA,NA,"chase their tails",1
8,1340,"implied_prevalence","behavior_aggressive",27,"zoovs",NA,NA,"attack hikers",1
8,1570,"implied_prevalence","psychological",28,"kazzes",NA,NA,"experience emotions",1
8,1648,"implied_prevalence","diet",29,"lorches",NA,NA,"eat insects",1
8,1408,"implied_prevalence","habitat",30,"reesles",NA,NA,"live in the hulls of sea vessels",1
8,2558,"implied_prevalence","behavior",31,"dorbs",NA,NA,"play with bottlecaps",1
8,1632,"implied_prevalence","behavior_aggressive",32,"pangolins",NA,NA,"steal farmers&quotechar crops",1
8,1598,"implied_prevalence","diet",33,"dunkels",NA,NA,"eat garbage",1
8,1304,"implied_prevalence","habitat",34,"stups",NA,NA,"live in zoos",1
8,1512,"implied_prevalence","habitat",35,"crullets",NA,NA,"live in high-rise buildings",1
8,1786,"implied_prevalence","behavior",36,"morseths",NA,NA,"sleep during the day",1
9,1701,"implied_prevalence","reproduction",1,"sapers",NA,NA,"have dozens of sexual partners",0.45
9,2050,"implied_prevalence","diet",2,"cheebas",NA,NA,"cannibalize each other",0.49
9,1264,"implied_prevalence","reproduction",3,"reesles",NA,NA,"lay eggs in other birds&quotechar nests",0.71
9,1035,"implied_prevalence","disease_other",4,"luzaks",NA,NA,"carry malaria",0.44
9,937,"implied_prevalence","psychological",5,"lorches",NA,NA,"know how to open doors",0.52
9,1381,"implied_prevalence","behavior",6,"pangolins",NA,NA,"swim in shallow pools",0.43
9,1035,"implied_prevalence","behavior_aggressive",7,"feps",NA,NA,"hunt other animals",0.68
9,932,"implied_prevalence","disease_self",8,"frams",NA,NA,"have strange genetic mutations",0.41
9,1883,"implied_prevalence","psychological",9,"zorbs",NA,NA,"are afraid of dogs",0.31
9,1199,"implied_prevalence","psychological",10,"daiths",NA,NA,"are intelligent",0.61
9,1518,"implied_prevalence","disease_self",11,"zoovs",NA,NA,"get cancer",0.47
9,1114,"implied_prevalence","disease_self",12,"glippets",NA,NA,"go bald",0.56
9,1099,"implied_prevalence","psychological",13,"trufts",NA,NA,"mourn their dead",0.69
9,1018,"implied_prevalence","diet",14,"dunkels",NA,NA,"eat insects",0.86
9,1435,"implied_prevalence","disease_self",15,"plovs",NA,NA,"have seizures",0.7
9,1530,"implied_prevalence","behavior_aggressive",16,"dobles",NA,NA,"steal farmers&quotechar crops",0.89
9,1102,"implied_prevalence","psychological",17,"kweps",NA,NA,"have personalities",0.78
9,1283,"implied_prevalence","behavior",18,"ackles",NA,NA,"play with bottlecaps",0.61
9,1420,"implied_prevalence","diet",19,"ollers",NA,NA,"eat candy wrappers",0.65
9,1379,"implied_prevalence","behavior_aggressive",20,"blins",NA,NA,"torture other animals",0.52
9,1019,"implied_prevalence","behavior_aggressive",21,"moxes",NA,NA,"carry out premeditated murder",0.58
9,10267,"implied_prevalence","disease_self",22,"elleps",NA,NA,"get addicted to nicotine",0.47
9,1465,"implied_prevalence","psychological",23,"stups",NA,NA,"are afraid of loud noises",0.68
9,1216,"implied_prevalence","physical",24,"thups",NA,NA,"live to be twenty years old",0.48
9,970,"implied_prevalence","behavior",25,"dorbs",NA,NA,"do handstands to scare off predators",0.67
9,1080,"implied_prevalence","disease_self",26,"crullets",NA,NA,"lose their teeth",0.53
9,1035,"implied_prevalence","habitat",27,"mooks",NA,NA,"live in the hulls of sea vessels",0.65
9,1015,"implied_prevalence","behavior",28,"wugs",NA,NA,"fly into building windows",0.67
9,1553,"implied_prevalence","disease_other",29,"ludinos",NA,NA,"carry Lyme disease",0.5
9,1281,"implied_prevalence","behavior",30,"kazzes",NA,NA,"use tools",0.73
9,1033,"implied_prevalence","reproduction",31,"grinks",NA,NA,"get erections",0.44
9,1200,"implied_prevalence","psychological",32,"morseths",NA,NA,"develop phobias",0.72
9,1135,"implied_prevalence","psychological",33,"fendles",NA,NA,"experience emotions",0.45
9,1234,"implied_prevalence","diet",34,"taifels",NA,NA,"feed on the carcasses of dead animals",0.76
9,1181,"implied_prevalence","physical",35,"javs",NA,NA,"live to be five hundred years old",0.39
9,1417,"implied_prevalence","behavior",36,"krivels",NA,NA,"chase their tails",0.7
9,23666,"explain_responses","reproduction",1,"sapers","i feel like it meant a whole bunch og sapers ",0.45,"have dozens of sexual partners",0.44
9,17400,"explain_responses","psychological",2,"zorbs","i feel like only a tiny amount would b eafraid",0.31,"are afraid of dogs",0.13
9,22184,"explain_responses","diet",3,"cheebas","cheetahs might ",0.49,"cannibalize each other",0.05
9,9449,"explain_responses","disease_self",4,"elleps","i feel like only half",0.47,"get addicted to nicotine",0.25
9,12967,"explain_responses","psychological",5,"fendles","fendles all would have to feel soemthing",0.45,"experience emotions",0.21
10,7349,"implied_prevalence","physical",1,"kazzes",NA,NA,"live to be five hundred years old",0.4
10,17552,"implied_prevalence","reproduction",2,"crullets",NA,NA,"attract mates by secreting pheromones",0.8
10,4091,"implied_prevalence","behavior",3,"dorbs",NA,NA,"ride the subway",0.84
10,4329,"implied_prevalence","psychological",4,"wugs",NA,NA,"know how to open doors",1
10,6610,"implied_prevalence","disease_self",5,"grinks",NA,NA,"develop back problems",0.2
10,7051,"implied_prevalence","disease_other",6,"krivels",NA,NA,"carry Lyme disease",0.3
10,3892,"implied_prevalence","reproduction",7,"zorbs",NA,NA,"lay eggs without needing fertilization",1
10,2756,"implied_prevalence","diet",8,"zoovs",NA,NA,"eat human food",1
10,5343,"implied_prevalence","reproduction",9,"kweps",NA,NA,"lay eggs in other birds&quotechar nests",0.4
10,9261,"implied_prevalence","behavior",10,"elleps",NA,NA,"swim in shallow pools",0.8
10,7207,"implied_prevalence","disease_other",11,"mooks",NA,NA,"transmit HIV",0.2
10,6249,"implied_prevalence","disease_self",12,"plovs",NA,NA,"get dandruff",0.15
10,4682,"implied_prevalence","psychological",13,"reesles",NA,NA,"experience empathy",0.1
10,3514,"implied_prevalence","psychological",14,"trufts",NA,NA,"are intelligent",0.5
10,8281,"implied_prevalence","behavior",15,"daiths",NA,NA,"sing beautiful songs",0.05
10,5766,"implied_prevalence","behavior_aggressive",16,"pangolins",NA,NA,"attack hikers",0.05
10,5399,"implied_prevalence","reproduction",17,"ollers",NA,NA,"get erections",1
10,4563,"implied_prevalence","diet",18,"stups",NA,NA,"eat garbage",0.75
10,4185,"implied_prevalence","psychological",19,"moxes",NA,NA,"are afraid of dogs",0.8
10,6319,"implied_prevalence","diet",20,"fendles",NA,NA,"drink alcohol left behind by tourists",0.2
10,10538,"implied_prevalence","habitat",21,"dunkels",NA,NA,"live in urban areas",0.8
10,5198,"implied_prevalence","behavior_aggressive",22,"blins",NA,NA,"get in fights with other animals",0.64
10,4343,"implied_prevalence","behavior",23,"cheebas",NA,NA,"perform in the circus",0.05
10,3397,"implied_prevalence","behavior_aggressive",24,"ackles",NA,NA,"hunt other animals",1
10,5575,"implied_prevalence","habitat",25,"frams",NA,NA,"live in zoos",0.1
10,3402,"implied_prevalence","behavior",26,"dobles",NA,NA,"sleep during the day",1
10,4208,"implied_prevalence","disease_self",27,"taifels",NA,NA,"get cancer",0.05
10,5092,"implied_prevalence","behavior_aggressive",28,"lorches",NA,NA,"capture other animals&quotechar territory",0.5
10,5444,"implied_prevalence","physical",29,"thups",NA,NA,"live to be a hundred years old",0.6
10,4786,"implied_prevalence","behavior_aggressive",30,"javs",NA,NA,"steal farmers&quotechar crops",0.85
10,3435,"implied_prevalence","habitat",31,"ludinos",NA,NA,"live in trees",1
10,3056,"implied_prevalence","habitat",32,"sapers",NA,NA,"live in high-rise buildings",1
10,2262,"implied_prevalence","habitat",33,"luzaks",NA,NA,"live in the hulls of sea vessels",1
10,5658,"implied_prevalence","diet",34,"feps",NA,NA,"fish in the Hudson River",0.3
10,6918,"implied_prevalence","behavior",35,"morseths",NA,NA,"do handstands to scare off predators",0.4
10,16007,"implied_prevalence","physical",36,"glippets",NA,NA,"have intensely beautiful feathers",0.7
10,18762,"explain_responses","reproduction",1,"kweps","seemed logical",0.4,"lay eggs in other birds&quotechar nests",0.4
10,10397,"explain_responses","disease_other",2,"mooks","Seemed logical",0.2,"transmit HIV",0.2
10,12176,"explain_responses","behavior_aggressive",3,"pangolins","seemed logical",0.05,"attack hikers",0.05
10,6783,"explain_responses","disease_self",4,"grinks","seemed logical",0.2,"develop back problems",0.2
10,7219,"explain_responses","disease_self",5,"taifels","seemed logical",0.05,"get cancer",0.05
11,5620,"implied_prevalence","psychological",1,"zoovs",NA,NA,"mourn their dead",0.99
11,9869,"implied_prevalence","reproduction",2,"mooks",NA,NA,"lay eggs without needing fertilization",0.99
11,5085,"implied_prevalence","diet",3,"stups",NA,NA,"eat human food",0.9
11,10920,"implied_prevalence","diet",4,"kweps",NA,NA,"eat insects",0.95
11,14369,"implied_prevalence","behavior_aggressive",5,"ackles",NA,NA,"attack hikers",0.85
11,3890,"implied_prevalence","diet",6,"fendles",NA,NA,"eat candy wrappers",0.93
11,5836,"implied_prevalence","behavior_aggressive",7,"javs",NA,NA,"carry out premeditated murder",0.85
11,4942,"implied_prevalence","physical",8,"daiths",NA,NA,"live to be a hundred years old",0.97
11,5102,"implied_prevalence","behavior",9,"zorbs",NA,NA,"chase their tails",0.98
11,10177,"implied_prevalence","diet",10,"ludinos",NA,NA,"feed on the carcasses of dead animals",0.85
11,8186,"implied_prevalence","disease_self",11,"kazzes",NA,NA,"have strange genetic mutations",0.8
11,4510,"implied_prevalence","habitat",12,"crullets",NA,NA,"live in urban areas",0.98
11,4123,"implied_prevalence","reproduction",13,"plovs",NA,NA,"have dozens of sexual partners",0.81
11,3259,"implied_prevalence","behavior",14,"dunkels",NA,NA,"sleep during the day",0.95
11,3280,"implied_prevalence","disease_other",15,"moxes",NA,NA,"carry Lyme disease",0.72
11,3117,"implied_prevalence","behavior_aggressive",16,"thups",NA,NA,"pound their chests to display dominance",0.99
11,4343,"implied_prevalence","disease_self",17,"cheebas",NA,NA,"get cancer",0.46
11,4219,"implied_prevalence","reproduction",18,"pangolins",NA,NA,"attract mates by secreting pheromones",0.98
11,7954,"implied_prevalence","disease_self",19,"reesles",NA,NA,"lose their teeth",0.91
11,6951,"implied_prevalence","behavior",20,"taifels",NA,NA,"swim in shallow pools",0.74
11,3838,"implied_prevalence","psychological",21,"glippets",NA,NA,"have personalities",0.98
11,3412,"implied_prevalence","reproduction",22,"luzaks",NA,NA,"lay eggs in other birds&quotechar nests",0.71
11,3958,"implied_prevalence","behavior",23,"elleps",NA,NA,"like to cuddle",0.82
11,3632,"implied_prevalence","habitat",24,"sapers",NA,NA,"live in trees",0.96
11,6079,"implied_prevalence","psychological",25,"lorches",NA,NA,"are afraid of loud noises",0.85
11,4616,"implied_prevalence","psychological",26,"dobles",NA,NA,"are intelligent",0.86
11,6171,"implied_prevalence","behavior",27,"trufts",NA,NA,"perform in the circus",0.58
11,2992,"implied_prevalence","disease_self",28,"morseths",NA,NA,"get addicted to nicotine",0.72
11,3421,"implied_prevalence","reproduction",29,"feps",NA,NA,"have a menstrual cycle",0.99
11,6396,"implied_prevalence","physical",30,"blins",NA,NA,"have very long wings",0.77
11,3837,"implied_prevalence","reproduction",31,"ollers",NA,NA,"give birth underwater",0.88
11,3524,"implied_prevalence","physical",32,"krivels",NA,NA,"have spots",0.75
11,3742,"implied_prevalence","habitat",33,"frams",NA,NA,"live in the hulls of sea vessels",0.66
11,2352,"implied_prevalence","disease_other",34,"grinks",NA,NA,"transmit HIV",0.6
11,3031,"implied_prevalence","diet",35,"dorbs",NA,NA,"eat cannabis",0.75
11,3094,"implied_prevalence","habitat",36,"wugs",NA,NA,"live in zoos",0.68
11,23936,"explain_responses","disease_self",1,"cheebas","I thought that some would get cancer but not the entire species",0.46,"get cancer",0.46
12,6486,"implied_prevalence","behavior_aggressive",1,"dobles",NA,NA,"carry out premeditated murder",0.4
12,62892,"implied_prevalence","behavior",2,"feps",NA,NA,"do handstands to scare off predators",0.28
12,1815,"implied_prevalence","disease_other",3,"wugs",NA,NA,"transmit rabies",0.32
12,1186,"implied_prevalence","behavior",4,"sapers",NA,NA,"fly into building windows",0.45
12,1253,"implied_prevalence","physical",5,"stups",NA,NA,"live to be twenty years old",0.56
12,1119,"implied_prevalence","disease_self",6,"morseths",NA,NA,"develop back problems",0.35
12,1311,"implied_prevalence","reproduction",7,"javs",NA,NA,"give birth underwater",0.79
12,288543,"implied_prevalence","behavior_aggressive",8,"glippets",NA,NA,"attack hikers",0.46
12,1188,"implied_prevalence","disease_other",9,"moxes",NA,NA,"carry malaria",0.61
12,1239,"implied_prevalence","physical",10,"blins",NA,NA,"have spots",0.34
12,3950,"implied_prevalence","reproduction",11,"daiths",NA,NA,"have dozens of sexual partners",0.67
12,1695,"implied_prevalence","diet",12,"crullets",NA,NA,"feed on the carcasses of dead animals",0.48
12,1259,"implied_prevalence","behavior",13,"plovs",NA,NA,"sing beautiful songs",0.33
12,1247,"implied_prevalence","reproduction",14,"ollers",NA,NA,"lay eggs without needing fertilization",0.57
12,1451,"implied_prevalence","diet",15,"thups",NA,NA,"eat people",0.64
12,1468,"implied_prevalence","psychological",16,"pangolins",NA,NA,"experience emotions",0.41
12,3033,"implied_prevalence","psychological",17,"luzaks",NA,NA,"know when earthquakes are about to happen",0.58
12,1317,"implied_prevalence","disease_self",18,"zorbs",NA,NA,"lose their teeth",0.46
12,2638,"implied_prevalence","disease_self",19,"elleps",NA,NA,"get dandruff",0.6
12,1296,"implied_prevalence","psychological",20,"kweps",NA,NA,"experience empathy",0.43
12,2041,"implied_prevalence","diet",21,"trufts",NA,NA,"eat insects",0.5
12,1484,"implied_prevalence","psychological",22,"fendles",NA,NA,"have personalities",0.62
12,1691,"implied_prevalence","diet",23,"lorches",NA,NA,"eat human food",0.44
12,1395,"implied_prevalence","psychological",24,"ludinos",NA,NA,"are afraid of loud noises",0.36
12,1361,"implied_prevalence","physical",25,"frams",NA,NA,"have an exquisite sense of smell",0.6
12,1444,"implied_prevalence","reproduction",26,"grinks",NA,NA,"have a menstrual cycle",0.38
12,1588,"implied_prevalence","behavior_aggressive",27,"mooks",NA,NA,"get in fights with other animals",0.78
12,1216,"implied_prevalence","diet",28,"cheebas",NA,NA,"drink soda",0.45
12,1243,"implied_prevalence","disease_self",29,"kazzes",NA,NA,"have seizures",0.42
12,1942,"implied_prevalence","psychological",30,"taifels",NA,NA,"are afraid of dogs",0.68
12,1442,"implied_prevalence","disease_self",31,"krivels",NA,NA,"get addicted to nicotine",0.4
12,1369,"implied_prevalence","physical",32,"zoovs",NA,NA,"have very long wings",0.6
12,1399,"implied_prevalence","disease_self",33,"dunkels",NA,NA,"have strange genetic mutations",0.42
12,1331,"implied_prevalence","behavior",34,"dorbs",NA,NA,"perform in the circus",0.57
12,1206,"implied_prevalence","diet",35,"reesles",NA,NA,"eat candy wrappers",0.46
12,1403,"implied_prevalence","habitat",36,"ackles",NA,NA,"live in zoos",0.36
12,29636,"explain_responses","behavior_aggressive",1,"glippets","Slight less than half would attack hikers.",0.46,"attack hikers",0.5
12,20207,"explain_responses","behavior",2,"sapers","Slight less than half sapers fly into building windows was my thought.",0.45,"fly into building windows",0.5
12,30781,"explain_responses","diet",3,"cheebas","Slightly less than half cheebas drink soda. because it only affects half the population.",0.45,"drink soda",0.5
12,28868,"explain_responses","behavior",4,"plovs","one third of Plovs sing beautiful songs. Was just a guess.",0.33,"sing beautiful songs",0.3
12,26225,"explain_responses","physical",5,"blins","About one third of Blins have spots. It only effects one in three blins.",0.34,"have spots",0.3
13,5986,"implied_prevalence","behavior",1,"mooks",NA,NA,"sing beautiful songs",0.98
13,3763,"implied_prevalence","habitat",2,"ackles",NA,NA,"live in urban areas",1
13,5109,"implied_prevalence","reproduction",3,"ollers",NA,NA,"give birth underwater",1
13,2078,"implied_prevalence","diet",4,"grinks",NA,NA,"eat candy wrappers",1
13,2930,"implied_prevalence","behavior_aggressive",5,"elleps",NA,NA,"steal farmers&quotechar crops",0.91
13,18981,"implied_prevalence","physical",6,"zorbs",NA,NA,"have intensely beautiful feathers",1
13,58111,"implied_prevalence","behavior",7,"ludinos",NA,NA,"play with bottlecaps",0.88
13,2438,"implied_prevalence","psychological",8,"luzaks",NA,NA,"mourn their dead",1
13,2085,"implied_prevalence","diet",9,"kweps",NA,NA,"eat human food",0.98
13,1591,"implied_prevalence","disease_other",10,"zoovs",NA,NA,"transmit rabies",0.98
13,58520,"implied_prevalence","diet",11,"stups",NA,NA,"feed on the carcasses of dead animals",0.88
13,2349,"implied_prevalence","physical",12,"dorbs",NA,NA,"live to be a hundred years old",0.84
13,603,"implied_prevalence","behavior_aggressive",13,"daiths",NA,NA,"torture other animals",0.94
13,617,"implied_prevalence","reproduction",14,"lorches",NA,NA,"have dozens of sexual partners",0.91
13,767,"implied_prevalence","psychological",15,"krivels",NA,NA,"experience emotions",0.93
13,2779,"implied_prevalence","behavior",16,"frams",NA,NA,"like to cuddle",0.91
13,1044,"implied_prevalence","diet",17,"feps",NA,NA,"drink soda",0.86
13,1398,"implied_prevalence","psychological",18,"sapers",NA,NA,"know how to open doors",0.89
13,2263,"implied_prevalence","disease_self",19,"wugs",NA,NA,"have seizures",0.56
13,2535,"implied_prevalence","disease_other",20,"pangolins",NA,NA,"carry Lyme disease",0.64
13,724,"implied_prevalence","behavior",21,"dobles",NA,NA,"ride the subway",0.74
13,597,"implied_prevalence","psychological",22,"plovs",NA,NA,"develop phobias",0.84
13,971,"implied_prevalence","behavior_aggressive",23,"dunkels",NA,NA,"carry out premeditated murder",0.96
13,709,"implied_prevalence","psychological",24,"thups",NA,NA,"are afraid of loud noises",0.91
13,1009,"implied_prevalence","physical",25,"crullets",NA,NA,"have brown fur",0.95
13,704,"implied_prevalence","behavior",26,"moxes",NA,NA,"sleep during the day",0.91
13,770,"implied_prevalence","reproduction",27,"cheebas",NA,NA,"have a menstrual cycle",0.89
13,7131,"implied_prevalence","habitat",28,"fendles",NA,NA,"live in trees",0.87
13,4415,"implied_prevalence","physical",29,"reesles",NA,NA,"live to be twenty years old",0.79
13,5793,"implied_prevalence","disease_self",30,"taifels",NA,NA,"have strange genetic mutations",0.85
13,5948,"implied_prevalence","diet",31,"javs",NA,NA,"cannibalize each other",0.99
13,1734,"implied_prevalence","behavior",32,"trufts",NA,NA,"fly into building windows",0.89
13,1440,"implied_prevalence","reproduction",33,"morseths",NA,NA,"get erections",0.94
13,5062,"implied_prevalence","disease_self",34,"glippets",NA,NA,"get dandruff",0.83
13,7132,"implied_prevalence","physical",35,"blins",NA,NA,"have spots",1
13,2891,"implied_prevalence","diet",36,"kazzes",NA,NA,"eat cannabis",0.89
14,6118,"implied_prevalence","psychological",1,"sapers",NA,NA,"experience empathy",1
14,3876,"implied_prevalence","behavior_aggressive",2,"blins",NA,NA,"attack hikers",0.75
14,3739,"implied_prevalence","behavior",3,"grinks",NA,NA,"fly into building windows",0.89
14,3042,"implied_prevalence","diet",4,"plovs",NA,NA,"fish in the Hudson River",1
14,3890,"implied_prevalence","reproduction",5,"dorbs",NA,NA,"lay eggs without needing fertilization",1
14,6673,"implied_prevalence","physical",6,"trufts",NA,NA,"live to be a hundred years old",0.77
14,2950,"implied_prevalence","physical",7,"taifels",NA,NA,"have intensely beautiful feathers",1
14,3581,"implied_prevalence","physical",8,"dobles",NA,NA,"live to be twenty years old",0.57
14,3210,"implied_prevalence","disease_self",9,"zoovs",NA,NA,"have seizures",0.14
14,3207,"implied_prevalence","diet",10,"mooks",NA,NA,"eat people",0.48
14,2734,"implied_prevalence","habitat",11,"frams",NA,NA,"live in high-rise buildings",0.84
14,3040,"implied_prevalence","disease_self",12,"thups",NA,NA,"get dandruff",0.25
14,4128,"implied_prevalence","behavior",13,"ollers",NA,NA,"use tools",0.92
14,3480,"implied_prevalence","diet",14,"elleps",NA,NA,"feed on the carcasses of dead animals",0.89
14,3986,"implied_prevalence","disease_self",15,"stups",NA,NA,"get cancer",0.24
14,3878,"implied_prevalence","habitat",16,"fendles",NA,NA,"live in zoos",1
14,3011,"implied_prevalence","disease_other",17,"ackles",NA,NA,"carry Lyme disease",0.7
14,3952,"implied_prevalence","habitat",18,"luzaks",NA,NA,"live in the hulls of sea vessels",1
14,4514,"implied_prevalence","diet",19,"daiths",NA,NA,"eat garbage",1
14,5749,"implied_prevalence","psychological",20,"kweps",NA,NA,"mourn their dead",0.94
14,2584,"implied_prevalence","psychological",21,"moxes",NA,NA,"are afraid of loud noises",1
14,2442,"implied_prevalence","habitat",22,"ludinos",NA,NA,"live in urban areas",0.88
14,3844,"implied_prevalence","behavior",23,"pangolins",NA,NA,"sing beautiful songs",1
14,2709,"implied_prevalence","disease_self",24,"feps",NA,NA,"have strange genetic mutations",1
14,3286,"implied_prevalence","diet",25,"morseths",NA,NA,"drink alcohol left behind by tourists",0.86
14,3012,"implied_prevalence","reproduction",26,"wugs",NA,NA,"give birth underwater",1
14,3220,"implied_prevalence","behavior",27,"lorches",NA,NA,"sleep during the day",0.94
14,9778,"implied_prevalence","psychological",28,"cheebas",NA,NA,"know how to ride bicycles",0.85
14,2296,"implied_prevalence","disease_other",29,"reesles",NA,NA,"transmit HIV",0.98
14,196594,"implied_prevalence","disease_self",30,"kazzes",NA,NA,"lose their teeth",0.85
14,65963,"implied_prevalence","psychological",31,"zorbs",NA,NA,"have personalities",0.74
14,4552,"implied_prevalence","behavior",32,"javs",NA,NA,"swim in shallow pools",1
14,2477,"implied_prevalence","reproduction",33,"crullets",NA,NA,"have a menstrual cycle",0.69
14,3453,"implied_prevalence","behavior",34,"krivels",NA,NA,"perform in the circus",0.94
14,6430,"implied_prevalence","behavior_aggressive",35,"dunkels",NA,NA,"hunt other animals",0.93
14,3642,"implied_prevalence","psychological",36,"glippets",NA,NA,"are intelligent",1
14,18642,"explain_responses","disease_self",1,"thups","Just because they gt Dandruff doesn&quotechart mean that they all do",0.25,"get dandruff",0.28
14,12249,"explain_responses","disease_self",2,"stups","Cancer is not a garuntee",0.24,"get cancer",0.22
14,24230,"explain_responses","disease_self",3,"zoovs","A species that gets seizures all the time won&quotechart exist for long.",0.14,"have seizures",0.11
14,46322,"explain_responses","diet",4,"mooks","It seems like some might eat people and some might not",0.48,"eat people",0.49
15,4132,"implied_prevalence","psychological",1,"thups",NA,NA,"know how to open doors",0.42
15,2048,"implied_prevalence","behavior",2,"zoovs",NA,NA,"use tools",0.45
15,922,"implied_prevalence","reproduction",3,"moxes",NA,NA,"get erections",0.62
15,1524,"implied_prevalence","behavior",4,"elleps",NA,NA,"play with bottlecaps",0.61
15,1078,"implied_prevalence","reproduction",5,"feps",NA,NA,"have a menstrual cycle",0.54
15,1044,"implied_prevalence","behavior",6,"reesles",NA,NA,"perform in the circus",0.68
15,1086,"implied_prevalence","disease_self",7,"javs",NA,NA,"have strange genetic mutations",0.64
15,824,"implied_prevalence","diet",8,"kazzes",NA,NA,"feed on the carcasses of dead animals",0.68
15,1544,"implied_prevalence","disease_self",9,"krivels",NA,NA,"develop back problems",0.64
15,926,"implied_prevalence","physical",10,"dobles",NA,NA,"have brown fur",0.6
15,1154,"implied_prevalence","behavior",11,"taifels",NA,NA,"like to cuddle",0.7
15,876,"implied_prevalence","behavior_aggressive",12,"ackles",NA,NA,"attack hikers",0.62
15,802,"implied_prevalence","diet",13,"luzaks",NA,NA,"eat garbage",0.73
15,1076,"implied_prevalence","reproduction",14,"mooks",NA,NA,"lay eggs in other birds&quotechar nests",0.55
15,916,"implied_prevalence","behavior",15,"wugs",NA,NA,"ride the subway",0.74
15,862,"implied_prevalence","behavior_aggressive",16,"blins",NA,NA,"steal farmers&quotechar crops",0.66
15,1286,"implied_prevalence","habitat",17,"plovs",NA,NA,"live in the hulls of sea vessels",0.53
15,954,"implied_prevalence","physical",18,"ludinos",NA,NA,"have very long wings",0.7
15,1300,"implied_prevalence","behavior",19,"zorbs",NA,NA,"chase their tails",0.78
15,884,"implied_prevalence","disease_self",20,"pangolins",NA,NA,"go bald",0.66
15,908,"implied_prevalence","diet",21,"dorbs",NA,NA,"eat candy wrappers",0.58
15,1070,"implied_prevalence","reproduction",22,"dunkels",NA,NA,"lay eggs without needing fertilization",0.66
15,1300,"implied_prevalence","psychological",23,"sapers",NA,NA,"know when earthquakes are about to happen",0.52
15,1238,"implied_prevalence","diet",24,"glippets",NA,NA,"eat human food",0.44
15,856,"implied_prevalence","diet",25,"fendles",NA,NA,"eat cannabis",0.65
15,1122,"implied_prevalence","behavior_aggressive",26,"ollers",NA,NA,"hunt other animals",0.48
15,916,"implied_prevalence","diet",27,"grinks",NA,NA,"drink alcohol left behind by tourists",0.61
15,1272,"implied_prevalence","physical",28,"crullets",NA,NA,"live to be five hundred years old",0.42
15,1030,"implied_prevalence","behavior_aggressive",29,"cheebas",NA,NA,"torture other animals",0.78
15,916,"implied_prevalence","habitat",30,"morseths",NA,NA,"live in high-rise buildings",0.45
15,1416,"implied_prevalence","disease_other",31,"kweps",NA,NA,"transmit rabies",0.55
15,892,"implied_prevalence","diet",32,"frams",NA,NA,"eat insects",0.61
15,924,"implied_prevalence","reproduction",33,"trufts",NA,NA,"give birth underwater",0.51
15,792,"implied_prevalence","psychological",34,"lorches",NA,NA,"develop phobias",0.63
15,808,"implied_prevalence","disease_other",35,"daiths",NA,NA,"carry Lyme disease",0.71
15,1022,"implied_prevalence","behavior",36,"stups",NA,NA,"swim in shallow pools",0.46
15,16442,"explain_responses","behavior",1,"zoovs","The words were similar but the word sounds weird.",0.45,"use tools",0.45
15,10166,"explain_responses","behavior",2,"stups","Stups sounds like stump and stumps sink",0.46,"swim in shallow pools",0.3
15,9014,"explain_responses","habitat",3,"morseths","Random",0.45,"live in high-rise buildings",0.45
15,17782,"explain_responses","physical",4,"crullets","Crullets is an old word by the sounds of it so I think I should rethink my response.",0.42,"live to be five hundred years old",0.76
15,8932,"explain_responses","psychological",5,"thups","Thups sounds like a mean word.",0.42,"know how to open doors",0.28
16,4150,"implied_prevalence","physical",1,"feps",NA,NA,"live to be twenty years old",0.19
16,4201,"implied_prevalence","disease_self",2,"grinks",NA,NA,"get cancer",0
16,3780,"implied_prevalence","physical",3,"javs",NA,NA,"live to be five hundred years old",0
16,5403,"implied_prevalence","behavior",4,"plovs",NA,NA,"sing beautiful songs",0.99
16,5319,"implied_prevalence","reproduction",5,"moxes",NA,NA,"attract mates by secreting pheromones",0.99
16,3893,"implied_prevalence","disease_self",6,"stups",NA,NA,"have strange genetic mutations",0.19
16,3756,"implied_prevalence","physical",7,"ludinos",NA,NA,"have brown fur",0.49
16,3281,"implied_prevalence","physical",8,"daiths",NA,NA,"have intensely beautiful feathers",0.68
16,3667,"implied_prevalence","diet",9,"reesles",NA,NA,"eat cannabis",0
16,3845,"implied_prevalence","psychological",10,"taifels",NA,NA,"know how to open doors",0
16,5031,"implied_prevalence","habitat",11,"zorbs",NA,NA,"live in the hulls of sea vessels",0.99
16,3264,"implied_prevalence","diet",12,"crullets",NA,NA,"eat garbage",0
16,4762,"implied_prevalence","behavior_aggressive",13,"elleps",NA,NA,"capture other animals&quotechar territory",0
16,7029,"implied_prevalence","disease_self",14,"zoovs",NA,NA,"develop back problems",0.01
16,3945,"implied_prevalence","physical",15,"ollers",NA,NA,"have an exquisite sense of smell",0.99
16,3955,"implied_prevalence","behavior",16,"trufts",NA,NA,"chase their tails",0
16,4418,"implied_prevalence","behavior",17,"krivels",NA,NA,"use tools",0.01
16,5619,"implied_prevalence","behavior",18,"lorches",NA,NA,"sleep during the day",0.99
16,4222,"implied_prevalence","behavior",19,"morseths",NA,NA,"like to cuddle",0.27
16,3717,"implied_prevalence","physical",20,"fendles",NA,NA,"have spots",0.31
16,3609,"implied_prevalence","diet",21,"ackles",NA,NA,"eat insects",0.99
16,3640,"implied_prevalence","diet",22,"thups",NA,NA,"fish in the Hudson River",0
16,4627,"implied_prevalence","behavior_aggressive",23,"pangolins",NA,NA,"carry out premeditated murder",0
16,5432,"implied_prevalence","psychological",24,"glippets",NA,NA,"mourn their dead",0.53
16,3485,"implied_prevalence","disease_self",25,"sapers",NA,NA,"get addicted to nicotine",0
16,4758,"implied_prevalence","behavior_aggressive",26,"dorbs",NA,NA,"get in fights with other animals",0.87
16,5764,"implied_prevalence","psychological",27,"cheebas",NA,NA,"are afraid of dogs",0.82
16,7373,"implied_prevalence","diet",28,"dobles",NA,NA,"eat human food",0.19
16,3469,"implied_prevalence","disease_other",29,"wugs",NA,NA,"transmit rabies",0
16,4562,"implied_prevalence","reproduction",30,"mooks",NA,NA,"get erections",0.5
16,3491,"implied_prevalence","disease_other",31,"kazzes",NA,NA,"transmit HIV",0.01
16,4538,"implied_prevalence","disease_other",32,"dunkels",NA,NA,"carry Lyme disease",0.1
16,3197,"implied_prevalence","psychological",33,"frams",NA,NA,"develop phobias",0.01
16,4590,"implied_prevalence","reproduction",34,"blins",NA,NA,"have dozens of sexual partners",0.5
16,4480,"implied_prevalence","psychological",35,"kweps",NA,NA,"have personalities",0.49
16,3377,"implied_prevalence","behavior",36,"luzaks",NA,NA,"fly into building windows",0.21
16,20164,"explain_responses","disease_other",1,"kazzes","Not many animals transmit HIV, so it would be very rare.",0.01,"transmit HIV",0.01
16,30967,"explain_responses","disease_other",2,"wugs","Not many animals transmit rabies, only mammals. So therefore it might be 0, if it&quotechars not a mammal.",0,"transmit rabies",0
16,16002,"explain_responses","behavior",3,"luzaks","If it is a bird, then a few would fly into windows.",0.21,"fly into building windows",0.21
16,15045,"explain_responses","psychological",4,"frams","Phobias are a thing that humans have, not animals.",0.01,"develop phobias",0
16,26885,"explain_responses","behavior",5,"morseths","A lot of animals like to cuddle, even if it is just to stay warm.",0.27,"like to cuddle",0.27
17,4733,"implied_prevalence","disease_self",1,"kweps",NA,NA,"get cancer",0.19
17,3733,"implied_prevalence","psychological",2,"kazzes",NA,NA,"are afraid of loud noises",0.2
17,3862,"implied_prevalence","psychological",3,"feps",NA,NA,"experience empathy",0.33
17,6036,"implied_prevalence","diet",4,"wugs",NA,NA,"drink alcohol left behind by tourists",0.9
17,4404,"implied_prevalence","diet",5,"plovs",NA,NA,"eat people",0.6
17,4058,"implied_prevalence","behavior",6,"pangolins",NA,NA,"play with bottlecaps",0.38
17,5535,"implied_prevalence","physical",7,"javs",NA,NA,"have spots",1
17,3712,"implied_prevalence","diet",8,"ollers",NA,NA,"drink soda",0
17,3271,"implied_prevalence","reproduction",9,"ludinos",NA,NA,"have a menstrual cycle",0.5
17,3562,"implied_prevalence","habitat",10,"thups",NA,NA,"live in urban areas",0.77
17,3411,"implied_prevalence","behavior_aggressive",11,"crullets",NA,NA,"attack hikers",0.12
17,2949,"implied_prevalence","diet",12,"moxes",NA,NA,"eat candy wrappers",0.07
17,4081,"implied_prevalence","behavior",13,"dobles",NA,NA,"sing beautiful songs",0.87
17,3899,"implied_prevalence","physical",14,"fendles",NA,NA,"have an exquisite sense of smell",0.96
17,5947,"implied_prevalence","behavior_aggressive",15,"dunkels",NA,NA,"pound their chests to display dominance",0.6
17,4740,"implied_prevalence","physical",16,"daiths",NA,NA,"live to be a hundred years old",0.85
17,4152,"implied_prevalence","disease_self",17,"dorbs",NA,NA,"lose their teeth",1
17,3389,"implied_prevalence","psychological",18,"elleps",NA,NA,"are intelligent",0.38
17,2979,"implied_prevalence","diet",19,"stups",NA,NA,"eat garbage",0.76
17,5057,"implied_prevalence","behavior",20,"mooks",NA,NA,"use tools",0
17,4150,"implied_prevalence","behavior_aggressive",21,"zoovs",NA,NA,"carry out premeditated murder",0.11
17,2918,"implied_prevalence","reproduction",22,"ackles",NA,NA,"lay eggs in other birds&quotechar nests",0.8
17,3263,"implied_prevalence","disease_other",23,"grinks",NA,NA,"transmit HIV",0.25
17,3324,"implied_prevalence","disease_self",24,"frams",NA,NA,"develop back problems",0.69
17,4182,"implied_prevalence","diet",25,"trufts",NA,NA,"eat cannabis",1
17,6190,"implied_prevalence","reproduction",26,"sapers",NA,NA,"lay eggs without needing fertilization",0.25
17,3179,"implied_prevalence","habitat",27,"cheebas",NA,NA,"live in high-rise buildings",0.1
17,2539,"implied_prevalence","behavior_aggressive",28,"reesles",NA,NA,"steal farmers&quotechar crops",0.7
17,3396,"implied_prevalence","disease_self",29,"morseths",NA,NA,"have strange genetic mutations",0.47
17,7109,"implied_prevalence","habitat",30,"krivels",NA,NA,"live in the hulls of sea vessels",0.33
17,2792,"implied_prevalence","behavior",31,"luzaks",NA,NA,"swim in shallow pools",0.4
17,2682,"implied_prevalence","reproduction",32,"blins",NA,NA,"have dozens of sexual partners",0.72
17,3018,"implied_prevalence","diet",33,"zorbs",NA,NA,"cannibalize each other",0.87
17,4530,"implied_prevalence","psychological",34,"lorches",NA,NA,"know how to ride bicycles",0
17,3734,"implied_prevalence","physical",35,"taifels",NA,NA,"live to be five hundred years old",0.08
17,4020,"implied_prevalence","diet",36,"glippets",NA,NA,"feed on the carcasses of dead animals",0.94
17,46691,"explain_responses","reproduction",1,"sapers","I imagined an invertebrate, many would normally reproduce sexually but would be capable of asexual reproduction if needed.",0.25,"lay eggs without needing fertilization",0.25
17,38798,"explain_responses","psychological",2,"elleps","Elleps wold be higher developed animals and have varying levels of mental capability, a decent percentage would be intellegent but most would be aof average capability",0.38,"are intelligent",0.38
17,75418,"explain_responses","behavior",3,"pangolins","They would not in a natural habitat but some in urban areas might be curious about types of litter and play with them in lieu of natural items like rocks and sticks",0.38,"play with bottlecaps",0.18
17,32916,"explain_responses","behavior",4,"luzaks","Luzaks are accustomed to shallow waters.  Ones in populated areas would be attracted to shallow pools",0.4,"swim in shallow pools",0.14
17,51080,"explain_responses","habitat",5,"cheebas","MOst would not but they are popular pets for rich people",0.1,"live in high-rise buildings",0.05
18,1984,"implied_prevalence","behavior",1,"feps",NA,NA,"use tools",0.52
18,1296,"implied_prevalence","disease_other",2,"pangolins",NA,NA,"carry malaria",0.47
18,1503,"implied_prevalence","diet",3,"krivels",NA,NA,"fish in the Hudson River",0.59
18,1360,"implied_prevalence","behavior_aggressive",4,"grinks",NA,NA,"steal farmers&quotechar crops",0.44
18,1943,"implied_prevalence","behavior_aggressive",5,"javs",NA,NA,"carry out premeditated murder",0.65
18,1784,"implied_prevalence","diet",6,"taifels",NA,NA,"drink alcohol left behind by tourists",0.48
18,11743,"implied_prevalence","behavior_aggressive",7,"thups",NA,NA,"get in fights with other animals",0.42
18,1151,"implied_prevalence","psychological",8,"luzaks",NA,NA,"experience empathy",0.62
18,761,"implied_prevalence","behavior",9,"plovs",NA,NA,"sing beautiful songs",0.51
18,800,"implied_prevalence","behavior",10,"mooks",NA,NA,"like to cuddle",0.56
18,713,"implied_prevalence","diet",11,"trufts",NA,NA,"cannibalize each other",0.39
18,2678,"implied_prevalence","disease_other",12,"ollers",NA,NA,"transmit rabies",0.6
18,10977,"implied_prevalence","diet",13,"wugs",NA,NA,"eat human food",0.31
18,775,"implied_prevalence","psychological",14,"daiths",NA,NA,"are afraid of loud noises",0.55
18,800,"implied_prevalence","habitat",15,"kweps",NA,NA,"live in urban areas",0.4
18,784,"implied_prevalence","disease_self",16,"reesles",NA,NA,"get dandruff",0.55
18,704,"implied_prevalence","psychological",17,"zoovs",NA,NA,"know how to ride bicycles",0.46
18,631,"implied_prevalence","diet",18,"dunkels",NA,NA,"feed on the carcasses of dead animals",0.58
18,601,"implied_prevalence","physical",19,"ackles",NA,NA,"have intensely beautiful feathers",0.45
18,607,"implied_prevalence","habitat",20,"stups",NA,NA,"live in the hulls of sea vessels",0.57
18,608,"implied_prevalence","reproduction",21,"dobles",NA,NA,"lay eggs in other birds&quotechar nests",0.7
18,657,"implied_prevalence","psychological",22,"glippets",NA,NA,"have personalities",0.45
18,615,"implied_prevalence","disease_self",23,"morseths",NA,NA,"have strange genetic mutations",0.57
18,688,"implied_prevalence","disease_self",24,"kazzes",NA,NA,"have seizures",0.45
18,640,"implied_prevalence","diet",25,"ludinos",NA,NA,"drink soda",0.55
18,607,"implied_prevalence","reproduction",26,"zorbs",NA,NA,"have a menstrual cycle",0.46
18,640,"implied_prevalence","reproduction",27,"cheebas",NA,NA,"give birth underwater",0.55
18,1112,"implied_prevalence","diet",28,"crullets",NA,NA,"eat grass",0.52
18,672,"implied_prevalence","behavior",29,"elleps",NA,NA,"fly into building windows",0.45
18,712,"implied_prevalence","habitat",30,"fendles",NA,NA,"live in zoos",0.54
18,632,"implied_prevalence","physical",31,"sapers",NA,NA,"live to be five hundred years old",0.39
18,600,"implied_prevalence","disease_self",32,"blins",NA,NA,"get cancer",0.59
18,721,"implied_prevalence","behavior",33,"moxes",NA,NA,"chase their tails",0.62
18,8767,"implied_prevalence","disease_self",34,"dorbs",NA,NA,"lose their teeth",0.3
18,736,"implied_prevalence","disease_self",35,"frams",NA,NA,"develop back problems",0.55
18,1168,"implied_prevalence","behavior",36,"lorches",NA,NA,"sleep during the day",0.43
18,13343,"explain_responses","psychological",1,"glippets","I can&quotechart even move it",0.45,"have personalities",0.46
18,20928,"explain_responses","habitat",2,"kweps","What is a kwep",0.4,"live in urban areas",0.39
18,6144,"explain_responses","behavior_aggressive",3,"grinks","I have no idea",0.44,"steal farmers&quotechar crops",0.53
18,6431,"explain_responses","disease_other",4,"pangolins","I don&quotechart know for sure.",0.47,"carry malaria",0.54
18,17057,"explain_responses","behavior",5,"lorches","Not really",0.43,"sleep during the day",0.48
19,6250,"implied_prevalence","behavior_aggressive",1,"dorbs",NA,NA,"carry out premeditated murder",0
19,4950,"implied_prevalence","diet",2,"daiths",NA,NA,"eat people",0
19,3870,"implied_prevalence","disease_self",3,"mooks",NA,NA,"get addicted to nicotine",0.6
19,4558,"implied_prevalence","reproduction",4,"javs",NA,NA,"have a menstrual cycle",0.51
19,3803,"implied_prevalence","disease_self",5,"dobles",NA,NA,"develop back problems",0.17
19,5322,"implied_prevalence","physical",6,"ollers",NA,NA,"live to be five hundred years old",0.59
19,2971,"implied_prevalence","disease_self",7,"frams",NA,NA,"get cancer",0.3
19,4537,"implied_prevalence","psychological",8,"zorbs",NA,NA,"know how to ride bicycles",0.78
19,3881,"implied_prevalence","physical",9,"lorches",NA,NA,"live to be a hundred years old",0.74
19,9835,"implied_prevalence","reproduction",10,"grinks",NA,NA,"attract mates by secreting pheromones",0.47
19,4561,"implied_prevalence","behavior",11,"plovs",NA,NA,"do handstands to scare off predators",1
19,3980,"implied_prevalence","habitat",12,"feps",NA,NA,"live in high-rise buildings",1
19,3440,"implied_prevalence","behavior_aggressive",13,"sapers",NA,NA,"get in fights with other animals",0.67
19,3277,"implied_prevalence","behavior",14,"taifels",NA,NA,"chase their tails",0.39
19,2775,"implied_prevalence","disease_other",15,"trufts",NA,NA,"carry malaria",0.51
19,1630,"implied_prevalence","habitat",16,"kweps",NA,NA,"live in urban areas",0.69
19,3254,"implied_prevalence","psychological",17,"cheebas",NA,NA,"experience emotions",1
19,3755,"implied_prevalence","disease_other",18,"morseths",NA,NA,"transmit HIV",0.09
19,2515,"implied_prevalence","physical",19,"fendles",NA,NA,"have spots",0.52
19,2499,"implied_prevalence","behavior_aggressive",20,"dunkels",NA,NA,"capture other animals&quotechar territory",0.25
19,2556,"implied_prevalence","psychological",21,"kazzes",NA,NA,"know how to open doors",0.66
19,1990,"implied_prevalence","diet",22,"thups",NA,NA,"eat grass",0.97
19,3189,"implied_prevalence","physical",23,"stups",NA,NA,"have an exquisite sense of smell",0.84
19,3155,"implied_prevalence","reproduction",24,"reesles",NA,NA,"have dozens of sexual partners",0.71
19,5887,"implied_prevalence","diet",25,"crullets",NA,NA,"fish in the Hudson River",0.49
19,2776,"implied_prevalence","diet",26,"pangolins",NA,NA,"eat human food",0.25
19,3232,"implied_prevalence","diet",27,"wugs",NA,NA,"cannibalize each other",0.08
19,2152,"implied_prevalence","behavior_aggressive",28,"ludinos",NA,NA,"torture other animals",0.05
19,3133,"implied_prevalence","behavior_aggressive",29,"moxes",NA,NA,"hunt other animals",0.77
19,2143,"implied_prevalence","diet",30,"ackles",NA,NA,"eat candy wrappers",0.13
19,3541,"implied_prevalence","physical",31,"zoovs",NA,NA,"have brown fur",0.33
19,3152,"implied_prevalence","behavior",32,"glippets",NA,NA,"swim in shallow pools",0.96
19,2983,"implied_prevalence","diet",33,"elleps",NA,NA,"feed on the carcasses of dead animals",0.8
19,3531,"implied_prevalence","psychological",34,"blins",NA,NA,"develop phobias",0.11
19,3566,"implied_prevalence","physical",35,"krivels",NA,NA,"live to be twenty years old",0.8
19,4089,"implied_prevalence","psychological",36,"luzaks",NA,NA,"are afraid of dogs",1
19,17367,"explain_responses","physical",1,"zoovs","i assume there is varience but not much.",0.33,"have brown fur",0.33
19,15784,"explain_responses","behavior_aggressive",2,"dorbs","It was the first question and I was confused.
",0,"carry out premeditated murder",0.05
19,14080,"explain_responses","diet",3,"ackles","I assume not many are in a position to eat candy wrappers.",0.13,"eat candy wrappers",0.13
19,16801,"explain_responses","psychological",4,"blins","I assume they can develop phobia&quotechars but not all do.",0.11,"develop phobias",0.11
19,17804,"explain_responses","behavior_aggressive",5,"dunkels","I assume not all of them are successful.",0.25,"capture other animals&quotechar territory",0.25
20,5455,"implied_prevalence","behavior_aggressive",1,"luzaks",NA,NA,"hunt other animals",0.5
20,1679,"implied_prevalence","habitat",2,"ackles",NA,NA,"live in zoos",0.49
20,3770,"implied_prevalence","behavior",3,"zorbs",NA,NA,"do handstands to scare off predators",0.5
20,3345,"implied_prevalence","habitat",4,"thups",NA,NA,"live in the hulls of sea vessels",1
20,2515,"implied_prevalence","psychological",5,"lorches",NA,NA,"experience emotions",1
20,2774,"implied_prevalence","behavior_aggressive",6,"dorbs",NA,NA,"carry out premeditated murder",1
20,4171,"implied_prevalence","disease_other",7,"wugs",NA,NA,"transmit rabies",0.68
20,1887,"implied_prevalence","disease_other",8,"blins",NA,NA,"transmit HIV",0.66
20,2634,"implied_prevalence","diet",9,"morseths",NA,NA,"eat grass",1
20,1786,"implied_prevalence","diet",10,"mooks",NA,NA,"eat human food",1
20,2439,"implied_prevalence","psychological",11,"grinks",NA,NA,"are afraid of loud noises",1
20,4159,"implied_prevalence","reproduction",12,"kweps",NA,NA,"have dozens of sexual partners",0.47
20,2972,"implied_prevalence","reproduction",13,"crullets",NA,NA,"have a menstrual cycle",1
20,2059,"implied_prevalence","reproduction",14,"kazzes",NA,NA,"lay eggs in other birds&quotechar nests",1
20,4092,"implied_prevalence","diet",15,"elleps",NA,NA,"drink alcohol left behind by tourists",1
20,4105,"implied_prevalence","diet",16,"stups",NA,NA,"drink soda",1
20,1780,"implied_prevalence","physical",17,"krivels",NA,NA,"have brown fur",1
20,1928,"implied_prevalence","physical",18,"sapers",NA,NA,"live to be twenty years old",1
20,4710,"implied_prevalence","diet",19,"reesles",NA,NA,"cannibalize each other",0.49
20,2556,"implied_prevalence","behavior",20,"frams",NA,NA,"ride the subway",1
20,13756,"implied_prevalence","diet",21,"javs",NA,NA,"eat garbage",1
20,4209,"implied_prevalence","behavior_aggressive",22,"plovs",NA,NA,"torture other animals",0.61
20,2044,"implied_prevalence","disease_self",23,"dobles",NA,NA,"go bald",1
20,2454,"implied_prevalence","behavior_aggressive",24,"ludinos",NA,NA,"capture other animals&quotechar territory",1
20,2554,"implied_prevalence","habitat",25,"taifels",NA,NA,"live in trees",1
20,1568,"implied_prevalence","disease_other",26,"zoovs",NA,NA,"carry Lyme disease",0.47
20,1327,"implied_prevalence","disease_self",27,"dunkels",NA,NA,"get dandruff",0.49
20,1291,"implied_prevalence","behavior_aggressive",28,"moxes",NA,NA,"get in fights with other animals",0.5
20,1936,"implied_prevalence","behavior",29,"glippets",NA,NA,"like to cuddle",0.5
20,2728,"implied_prevalence","physical",30,"trufts",NA,NA,"live to be a hundred years old",1
20,2462,"implied_prevalence","behavior_aggressive",31,"pangolins",NA,NA,"steal farmers&quotechar crops",1
20,3229,"implied_prevalence","behavior",32,"ollers",NA,NA,"swim in shallow pools",1
20,4993,"implied_prevalence","psychological",33,"cheebas",NA,NA,"know when earthquakes are about to happen",1
20,2743,"implied_prevalence","behavior",34,"feps",NA,NA,"play with bottlecaps",0.53
20,1764,"implied_prevalence","disease_self",35,"fendles",NA,NA,"lose their teeth",1
20,1669,"implied_prevalence","diet",36,"daiths",NA,NA,"eat candy wrappers",0.56
20,20404,"explain_responses","reproduction",1,"kweps","Because not all of them have dozens of partners but some do.",0.47,"have dozens of sexual partners",0.67
20,15702,"explain_responses","disease_self",2,"dunkels","It seems like most of them get dandruff",0.49,"get dandruff",0.61
20,47669,"explain_responses","diet",3,"reesles","If they all cannibalized each other then there would be nothing left.",0.49,"cannibalize each other",0.52
20,18564,"explain_responses","habitat",4,"ackles","Maybe most of them live in zoos but not all",0.49,"live in zoos",1
20,21776,"explain_responses","disease_other",5,"zoovs","It doesn&quotechart mean all of them have lyme diesease.",0.47,"carry Lyme disease",0.57
21,8383,"implied_prevalence","disease_other",1,"sapers",NA,NA,"transmit HIV",0.75
21,4326,"implied_prevalence","disease_self",2,"elleps",NA,NA,"have seizures",0.86
21,3385,"implied_prevalence","behavior",3,"javs",NA,NA,"sleep during the day",0.88
21,2550,"implied_prevalence","disease_other",4,"luzaks",NA,NA,"carry malaria",0.66
21,5738,"implied_prevalence","behavior",5,"morseths",NA,NA,"use tools",0.97
21,5627,"implied_prevalence","physical",6,"pangolins",NA,NA,"live to be twenty years old",0.78
21,4127,"implied_prevalence","disease_other",7,"feps",NA,NA,"transmit rabies",0.89
21,2700,"implied_prevalence","behavior",8,"zoovs",NA,NA,"swim in shallow pools",0.93
21,7001,"implied_prevalence","disease_self",9,"taifels",NA,NA,"get addicted to nicotine",0.52
21,5630,"implied_prevalence","behavior_aggressive",10,"ludinos",NA,NA,"torture other animals",0.8
21,3507,"implied_prevalence","behavior_aggressive",11,"daiths",NA,NA,"get in fights with other animals",0.76
21,2875,"implied_prevalence","psychological",12,"dorbs",NA,NA,"mourn their dead",0.81
21,4363,"implied_prevalence","behavior",13,"ackles",NA,NA,"play with bottlecaps",0.46
21,5317,"implied_prevalence","behavior_aggressive",14,"stups",NA,NA,"steal farmers&quotechar crops",0.86
21,3585,"implied_prevalence","psychological",15,"crullets",NA,NA,"know how to open doors",0.62
21,1818,"implied_prevalence","psychological",16,"thups",NA,NA,"experience empathy",0.79
21,4985,"implied_prevalence","disease_self",17,"krivels",NA,NA,"go bald",0.52
21,4472,"implied_prevalence","diet",18,"kazzes",NA,NA,"fish in the Hudson River",0.77
21,3002,"implied_prevalence","habitat",19,"fendles",NA,NA,"live in trees",0.94
21,57155,"implied_prevalence","physical",20,"kweps",NA,NA,"have intensely beautiful feathers",0.69
21,4791,"implied_prevalence","diet",21,"cheebas",NA,NA,"eat grass",1
21,3985,"implied_prevalence","habitat",22,"trufts",NA,NA,"live in urban areas",0.71
21,5455,"implied_prevalence","behavior",23,"zorbs",NA,NA,"do handstands to scare off predators",0.91
21,5416,"implied_prevalence","habitat",24,"frams",NA,NA,"live in high-rise buildings",0.74
21,6149,"implied_prevalence","diet",25,"ollers",NA,NA,"eat people",0.69
21,6090,"implied_prevalence","behavior",26,"dunkels",NA,NA,"chase their tails",0.95
21,3436,"implied_prevalence","psychological",27,"blins",NA,NA,"are afraid of dogs",1
21,2954,"implied_prevalence","physical",28,"wugs",NA,NA,"have spots",1
21,2335,"implied_prevalence","disease_self",29,"plovs",NA,NA,"lose their teeth",1
21,2183,"implied_prevalence","behavior",30,"reesles",NA,NA,"like to cuddle",0.73
21,4699,"implied_prevalence","behavior_aggressive",31,"mooks",NA,NA,"pound their chests to display dominance",0.79
21,29554,"implied_prevalence","diet",32,"moxes",NA,NA,"eat human food",0.55
21,4733,"implied_prevalence","psychological",33,"glippets",NA,NA,"develop phobias",0.6
21,4573,"implied_prevalence","habitat",34,"grinks",NA,NA,"live in zoos",0.28
21,9034,"implied_prevalence","reproduction",35,"lorches",NA,NA,"attract mates by secreting pheromones",0.5
21,3966,"implied_prevalence","psychological",36,"dobles",NA,NA,"know how to ride bicycles",0.31
21,28305,"explain_responses","habitat",1,"grinks","Because I assume not all of the Grinks live in zoos",0.28,"live in zoos",0.28
21,31883,"explain_responses","psychological",2,"dobles","I was sure that there are many Dobles don&quotechart know how to ride a bicycle.",0.31,"know how to ride bicycles",0.31
21,44665,"explain_responses","behavior",3,"ackles","Because I assume not all Ackles have access to bottle caps",0.46,"play with bottlecaps",0.46
22,9350,"implied_prevalence","behavior",1,"zorbs",NA,NA,"play with bottlecaps",0.75
22,5590,"implied_prevalence","psychological",2,"thups",NA,NA,"are intelligent",0.74
22,8456,"implied_prevalence","physical",3,"reesles",NA,NA,"live to be a hundred years old",0.3
22,5136,"implied_prevalence","diet",4,"dobles",NA,NA,"cannibalize each other",0.8
22,5384,"implied_prevalence","behavior_aggressive",5,"wugs",NA,NA,"torture other animals",0.8
22,3664,"implied_prevalence","behavior_aggressive",6,"sapers",NA,NA,"capture other animals&quotechar territory",0.92
22,4872,"implied_prevalence","reproduction",7,"ollers",NA,NA,"lay eggs in other birds&quotechar nests",0.96
22,3792,"implied_prevalence","disease_other",8,"krivels",NA,NA,"carry Lyme disease",0.2
22,4280,"implied_prevalence","behavior_aggressive",9,"elleps",NA,NA,"carry out premeditated murder",0.15
22,3434,"implied_prevalence","disease_other",10,"kweps",NA,NA,"transmit HIV",0.1
22,8302,"implied_prevalence","psychological",11,"trufts",NA,NA,"know how to open doors",0.78
22,9600,"implied_prevalence","habitat",12,"kazzes",NA,NA,"live in the hulls of sea vessels",0.04
22,5640,"implied_prevalence","disease_other",13,"morseths",NA,NA,"transmit rabies",0.06
22,5614,"implied_prevalence","habitat",14,"ludinos",NA,NA,"live in urban areas",0.65
22,3616,"implied_prevalence","disease_other",15,"taifels",NA,NA,"carry malaria",0.05
22,4808,"implied_prevalence","behavior_aggressive",16,"lorches",NA,NA,"pound their chests to display dominance",0.95
22,5688,"implied_prevalence","disease_self",17,"feps",NA,NA,"have strange genetic mutations",0.42
22,4504,"implied_prevalence","habitat",18,"zoovs",NA,NA,"live in trees",0.95
22,2984,"implied_prevalence","disease_self",19,"luzaks",NA,NA,"develop back problems",0.65
22,4448,"implied_prevalence","diet",20,"daiths",NA,NA,"eat insects",0.95
22,3568,"implied_prevalence","diet",21,"crullets",NA,NA,"feed on the carcasses of dead animals",0.94
22,4680,"implied_prevalence","psychological",22,"frams",NA,NA,"experience empathy",0.9
22,2896,"implied_prevalence","behavior_aggressive",23,"javs",NA,NA,"hunt other animals",0.96
22,3832,"implied_prevalence","diet",24,"moxes",NA,NA,"eat human food",0.23
22,5000,"implied_prevalence","diet",25,"cheebas",NA,NA,"eat cannabis",0.15
22,4792,"implied_prevalence","physical",26,"blins",NA,NA,"have intensely beautiful feathers",0.8
22,7184,"implied_prevalence","behavior",27,"grinks",NA,NA,"swim in shallow pools",0.2
22,2984,"implied_prevalence","behavior",28,"fendles",NA,NA,"sing beautiful songs",0.9
22,5664,"implied_prevalence","physical",29,"pangolins",NA,NA,"have brown fur",0.98
22,6496,"implied_prevalence","habitat",30,"glippets",NA,NA,"live in high-rise buildings",0.15
22,5192,"implied_prevalence","disease_self",31,"stups",NA,NA,"get cancer",0.34
22,5152,"implied_prevalence","physical",32,"ackles",NA,NA,"live to be twenty years old",0.33
22,7912,"implied_prevalence","reproduction",33,"dunkels",NA,NA,"lay eggs without needing fertilization",0.5
22,2728,"implied_prevalence","diet",34,"mooks",NA,NA,"eat garbage",0.15
22,4496,"implied_prevalence","disease_self",35,"dorbs",NA,NA,"get dandruff",0.37
22,4024,"implied_prevalence","behavior_aggressive",36,"plovs",NA,NA,"steal farmers&quotechar crops",0.1
22,17128,"explain_responses","disease_self",1,"stups","I compared it to the cancer rate in humans.",0.34,"get cancer",0.38
22,13280,"explain_responses","disease_self",2,"dorbs","I guessed randomly.",0.37,"get dandruff",0.37
22,29184,"explain_responses","disease_other",3,"morseths","In real life, not many individual members of a rabies carrying species actually have rabies.",0.06,"transmit rabies",0.05
22,23800,"explain_responses","physical",4,"ackles","I interpreted it as ""can live to be twenty years old"".",0.33,"live to be twenty years old",0.25
22,29640,"explain_responses","disease_other",5,"taifels","As before, most members of a carrier species do not actually have a given disease.",0.05,"carry malaria",0.05
23,15022,"implied_prevalence","behavior_aggressive",1,"kazzes",NA,NA,"attack hikers",0.05
23,8392,"implied_prevalence","physical",2,"kweps",NA,NA,"live to be twenty years old",0.06
23,5999,"implied_prevalence","reproduction",3,"morseths",NA,NA,"attract mates by secreting pheromones",1
23,3753,"implied_prevalence","behavior",4,"dobles",NA,NA,"sing beautiful songs",0.92
23,7479,"implied_prevalence","reproduction",5,"frams",NA,NA,"lay eggs without needing fertilization",0.92
23,7264,"implied_prevalence","diet",6,"thups",NA,NA,"eat garbage",0.03
23,4968,"implied_prevalence","diet",7,"luzaks",NA,NA,"drink alcohol left behind by tourists",0.27
23,6255,"implied_prevalence","physical",8,"zorbs",NA,NA,"have very long wings",0.08
23,5545,"implied_prevalence","physical",9,"zoovs",NA,NA,"live to be a hundred years old",0.08
23,4887,"implied_prevalence","disease_self",10,"fendles",NA,NA,"have strange genetic mutations",0.02
23,4072,"implied_prevalence","habitat",11,"reesles",NA,NA,"live in urban areas",0.03
23,7377,"implied_prevalence","disease_self",12,"stups",NA,NA,"have seizures",0.63
23,4319,"implied_prevalence","psychological",13,"ollers",NA,NA,"have personalities",0.35
23,6087,"implied_prevalence","habitat",14,"moxes",NA,NA,"live in trees",0.8
23,3312,"implied_prevalence","behavior",15,"javs",NA,NA,"ride the subway",0.06
23,2240,"implied_prevalence","psychological",16,"ludinos",NA,NA,"experience empathy",0.8
23,4464,"implied_prevalence","reproduction",17,"sapers",NA,NA,"have a menstrual cycle",0.83
23,2048,"implied_prevalence","physical",18,"krivels",NA,NA,"have brown fur",0.86
23,2143,"implied_prevalence","behavior_aggressive",19,"daiths",NA,NA,"torture other animals",0.37
23,1369,"implied_prevalence","disease_other",20,"crullets",NA,NA,"carry malaria",0.7
23,3039,"implied_prevalence","behavior",21,"dorbs",NA,NA,"play with bottlecaps",0.78
23,3663,"implied_prevalence","diet",22,"glippets",NA,NA,"cannibalize each other",0.26
23,1928,"implied_prevalence","psychological",23,"taifels",NA,NA,"develop phobias",0.76
23,2280,"implied_prevalence","habitat",24,"lorches",NA,NA,"live in zoos",0.8
23,3408,"implied_prevalence","diet",25,"feps",NA,NA,"eat grass",0.1
23,2176,"implied_prevalence","psychological",26,"trufts",NA,NA,"know how to open doors",0.75
23,5320,"implied_prevalence","psychological",27,"dunkels",NA,NA,"are intelligent",0.47
23,6039,"implied_prevalence","physical",28,"wugs",NA,NA,"live to be five hundred years old",0
23,3408,"implied_prevalence","disease_other",29,"plovs",NA,NA,"transmit HIV",0
23,4153,"implied_prevalence","reproduction",30,"ackles",NA,NA,"get erections",0.67
23,5143,"implied_prevalence","psychological",31,"grinks",NA,NA,"know how to ride bicycles",0
23,3608,"implied_prevalence","behavior",32,"pangolins",NA,NA,"swim in shallow pools",0
23,2968,"implied_prevalence","diet",33,"elleps",NA,NA,"eat candy wrappers",0
23,5112,"implied_prevalence","behavior_aggressive",34,"mooks",NA,NA,"hunt other animals",0.65
23,5336,"implied_prevalence","diet",35,"blins",NA,NA,"feed on the carcasses of dead animals",0.6
23,3439,"implied_prevalence","behavior",36,"cheebas",NA,NA,"perform in the circus",0
23,80430,"explain_responses","psychological",1,"dunkels","I don&quotechart know if dunkels exist. so i just use 50% of my chance to say that they are inteligent.",0.47,"are intelligent",0.5
23,36967,"explain_responses","habitat",2,"reesles","I live in a Urban Area and i don&quotechart know what is a Reesles",0.03,"live in urban areas",0
23,29775,"explain_responses","diet",3,"thups","i neve see something else than rats in the garbage.",0.03,"eat garbage",0
23,43048,"explain_responses","diet",4,"glippets","cannibalization is a rare thing that only a few animal does.",0.26,"cannibalize each other",0.3
23,35423,"explain_responses","physical",5,"kweps","propably they live more than that.",0.06,"live to be twenty years old",0.06
24,8460,"implied_prevalence","diet",1,"luzaks",NA,NA,"drink alcohol left behind by tourists",0.78
24,5144,"implied_prevalence","psychological",2,"cheebas",NA,NA,"mourn their dead",1
24,3501,"implied_prevalence","physical",3,"krivels",NA,NA,"have spots",1
24,6231,"implied_prevalence","psychological",4,"trufts",NA,NA,"develop phobias",0.2
24,5079,"implied_prevalence","physical",5,"wugs",NA,NA,"have very long wings",1
24,6451,"implied_prevalence","disease_other",6,"zorbs",NA,NA,"transmit HIV",0.9
24,4239,"implied_prevalence","psychological",7,"blins",NA,NA,"are intelligent",0.95
24,6776,"implied_prevalence","reproduction",8,"frams",NA,NA,"have a menstrual cycle",1
24,6481,"implied_prevalence","disease_self",9,"dobles",NA,NA,"develop back problems",0.6
24,5623,"implied_prevalence","behavior",10,"sapers",NA,NA,"like to cuddle",0.8
24,5936,"implied_prevalence","behavior_aggressive",11,"morseths",NA,NA,"pound their chests to display dominance",0.5
24,4404,"implied_prevalence","habitat",12,"mooks",NA,NA,"live in urban areas",1
24,2741,"implied_prevalence","habitat",13,"fendles",NA,NA,"live in trees",1
24,4229,"implied_prevalence","reproduction",14,"ollers",NA,NA,"give birth underwater",1
24,6203,"implied_prevalence","disease_self",15,"ludinos",NA,NA,"go bald",0.71
24,5924,"implied_prevalence","behavior",16,"dunkels",NA,NA,"swim in shallow pools",1
24,3198,"implied_prevalence","psychological",17,"moxes",NA,NA,"are afraid of dogs",0.74
24,4239,"implied_prevalence","psychological",18,"kazzes",NA,NA,"know how to open doors",0.5
24,8472,"implied_prevalence","diet",19,"stups",NA,NA,"fish in the Hudson River",0.65
24,5121,"implied_prevalence","behavior",20,"plovs",NA,NA,"chase their tails",0.7
24,4336,"implied_prevalence","reproduction",21,"dorbs",NA,NA,"get erections",0.5
24,6442,"implied_prevalence","behavior_aggressive",22,"glippets",NA,NA,"capture other animals&quotechar territory",0.7
24,4680,"implied_prevalence","diet",23,"reesles",NA,NA,"feed on the carcasses of dead animals",0.84
24,3846,"implied_prevalence","reproduction",24,"zoovs",NA,NA,"lay eggs without needing fertilization",0.59
24,4291,"implied_prevalence","habitat",25,"daiths",NA,NA,"live in zoos",0.19
24,4448,"implied_prevalence","diet",26,"pangolins",NA,NA,"drink soda",0.2
24,6285,"implied_prevalence","behavior_aggressive",27,"taifels",NA,NA,"torture other animals",0.25
24,4145,"implied_prevalence","disease_self",28,"grinks",NA,NA,"get dandruff",0.5
24,4587,"implied_prevalence","diet",29,"thups",NA,NA,"eat people",0.1
24,4340,"implied_prevalence","behavior",30,"feps",NA,NA,"ride the subway",0.27
24,4992,"implied_prevalence","disease_self",31,"crullets",NA,NA,"lose their teeth",0.7
24,3747,"implied_prevalence","psychological",32,"lorches",NA,NA,"are afraid of loud noises",0.49
24,3136,"implied_prevalence","disease_self",33,"kweps",NA,NA,"have seizures",0.1
24,4064,"implied_prevalence","behavior_aggressive",34,"ackles",NA,NA,"steal farmers&quotechar crops",0.67
24,5154,"implied_prevalence","physical",35,"elleps",NA,NA,"have an exquisite sense of smell",0.85
24,6308,"implied_prevalence","behavior",36,"javs",NA,NA,"do handstands to scare off predators",0.6
24,31012,"explain_responses","psychological",1,"lorches","I assume that his only applies to some of the Lorches. I have no idea to know how many so I went in the middle.",0.49,"are afraid of loud noises",0.49
24,28334,"explain_responses","disease_self",2,"kweps","I think something like this is going to depend on a Kwep having bad health, which I think is going to be somewhat low.",0.1,"have seizures",0.1
24,30622,"explain_responses","diet",3,"pangolins","This is going to depend on which Pangolins have been exposed to soda and actually lie it. The number will be low.",0.2,"drink soda",0.15
24,24908,"explain_responses","habitat",4,"daiths","I supposed that some will live in zoos, but not many.",0.19,"live in zoos",0.08
24,40237,"explain_responses","diet",5,"thups","This will depend on how many Thups come into contact with people and feel hungry at the same time. I think the number is going to be low.",0.1,"eat people",0.05
25,5542,"implied_prevalence","disease_self",1,"ollers",NA,NA,"develop back problems",0.19
25,3267,"implied_prevalence","reproduction",2,"wugs",NA,NA,"have a menstrual cycle",0.48
25,4290,"implied_prevalence","behavior",3,"reesles",NA,NA,"do handstands to scare off predators",1
25,3683,"implied_prevalence","behavior",4,"cheebas",NA,NA,"use tools",0.26
25,3299,"implied_prevalence","physical",5,"zoovs",NA,NA,"have an exquisite sense of smell",1
25,2884,"implied_prevalence","disease_self",6,"krivels",NA,NA,"get dandruff",0.53
25,3405,"implied_prevalence","physical",7,"fendles",NA,NA,"have spots",0.91
25,3020,"implied_prevalence","physical",8,"dobles",NA,NA,"have brown fur",0.57
25,3018,"implied_prevalence","behavior",9,"ackles",NA,NA,"sing beautiful songs",0.13
25,5801,"implied_prevalence","psychological",10,"stups",NA,NA,"know how to open doors",0.2
25,5236,"implied_prevalence","diet",11,"frams",NA,NA,"feed on the carcasses of dead animals",0.77
25,12310,"implied_prevalence","diet",12,"zorbs",NA,NA,"eat cannabis",0.43
25,5319,"implied_prevalence","behavior",13,"thups",NA,NA,"chase their tails",0.24
25,2888,"implied_prevalence","psychological",14,"dunkels",NA,NA,"develop phobias",0.34
25,3240,"implied_prevalence","disease_self",15,"elleps",NA,NA,"go bald",0.25
25,2325,"implied_prevalence","psychological",16,"pangolins",NA,NA,"are afraid of loud noises",0.77
25,4404,"implied_prevalence","diet",17,"morseths",NA,NA,"fish in the Hudson River",0.86
25,3745,"implied_prevalence","reproduction",18,"plovs",NA,NA,"give birth underwater",0.7
25,7479,"implied_prevalence","disease_other",19,"glippets",NA,NA,"transmit rabies",0.1
25,2435,"implied_prevalence","habitat",20,"trufts",NA,NA,"live in zoos",0.06
25,3823,"implied_prevalence","psychological",21,"crullets",NA,NA,"are intelligent",0.42
25,2773,"implied_prevalence","habitat",22,"kweps",NA,NA,"live in high-rise buildings",0.11
25,3930,"implied_prevalence","reproduction",23,"lorches",NA,NA,"attract mates by secreting pheromones",0.87
25,4646,"implied_prevalence","behavior_aggressive",24,"daiths",NA,NA,"attack hikers",0.67
25,4187,"implied_prevalence","reproduction",25,"mooks",NA,NA,"lay eggs without needing fertilization",0.91
25,4486,"implied_prevalence","behavior_aggressive",26,"grinks",NA,NA,"torture other animals",0.34
25,2125,"implied_prevalence","diet",27,"blins",NA,NA,"eat garbage",0.85
25,1903,"implied_prevalence","behavior",28,"taifels",NA,NA,"like to cuddle",0.57
25,3574,"implied_prevalence","psychological",29,"sapers",NA,NA,"know when earthquakes are about to happen",0.28
25,6322,"implied_prevalence","habitat",30,"luzaks",NA,NA,"live in trees",0.68
25,3367,"implied_prevalence","disease_self",31,"javs",NA,NA,"have seizures",0.12
25,2439,"implied_prevalence","psychological",32,"kazzes",NA,NA,"have personalities",0.89
25,5684,"implied_prevalence","behavior_aggressive",33,"dorbs",NA,NA,"hunt other animals",0.64
25,4639,"implied_prevalence","physical",34,"moxes",NA,NA,"live to be five hundred years old",0.86
25,3401,"implied_prevalence","diet",35,"ludinos",NA,NA,"cannibalize each other",0.48
25,2960,"implied_prevalence","behavior",36,"feps",NA,NA,"perform in the circus",0.06
25,24835,"explain_responses","disease_self",1,"javs","Seizures are something that isn&quotechart specific to one animal type.",0.12,"have seizures",0.12
25,36794,"explain_responses","reproduction",2,"wugs","Not all Wugs are likely of the same gender, so only about half can have a menstrual cycle.",0.48,"have a menstrual cycle",0.48
25,18519,"explain_responses","behavior",3,"feps","Not all animals perform in a circus, only a select few.",0.06,"perform in the circus",0.06
25,21945,"explain_responses","psychological",4,"dunkels","Not every animal has a phobia, but a good amount will.",0.34,"develop phobias",0.27
25,24922,"explain_responses","behavior",5,"cheebas","Not every animal will use tools, just like humans, not every human will.",0.26,"use tools",0.12
26,5885,"implied_prevalence","disease_self",1,"thups",NA,NA,"get cancer",0.14
26,6188,"implied_prevalence","behavior_aggressive",2,"kweps",NA,NA,"capture other animals&quotechar territory",0.18
26,9520,"implied_prevalence","psychological",3,"plovs",NA,NA,"are afraid of dogs",0.32
26,3710,"implied_prevalence","disease_self",4,"wugs",NA,NA,"develop back problems",0.34
26,6203,"implied_prevalence","habitat",5,"fendles",NA,NA,"live in urban areas",0.66
26,4542,"implied_prevalence","disease_self",6,"krivels",NA,NA,"have seizures",0.13
26,4250,"implied_prevalence","behavior",7,"trufts",NA,NA,"fly into building windows",0.3
26,4944,"implied_prevalence","reproduction",8,"luzaks",NA,NA,"give birth underwater",0.96
26,4780,"implied_prevalence","behavior",9,"feps",NA,NA,"sleep during the day",0.96
26,3431,"implied_prevalence","reproduction",10,"dorbs",NA,NA,"lay eggs in other birds&quotechar nests",0.44
26,4866,"implied_prevalence","psychological",11,"cheebas",NA,NA,"are afraid of loud noises",0.6
26,3652,"implied_prevalence","disease_self",12,"stups",NA,NA,"lose their teeth",0.73
26,5456,"implied_prevalence","disease_self",13,"reesles",NA,NA,"get addicted to nicotine",0.29
26,6992,"implied_prevalence","psychological",14,"dobles",NA,NA,"know when earthquakes are about to happen",0.6
26,4868,"implied_prevalence","diet",15,"glippets",NA,NA,"eat people",0.08
26,6469,"implied_prevalence","disease_self",16,"taifels",NA,NA,"go bald",0.69
26,5698,"implied_prevalence","behavior_aggressive",17,"daiths",NA,NA,"hunt other animals",0.99
26,5078,"implied_prevalence","diet",18,"zorbs",NA,NA,"eat human food",0.44
