workerid,rt,trial_type,property,trial_num,experimentResults,missing,explanation,n_data,condition,distribution,property_type,response,category,pass_both,language,englishNative
1,84032,prior_manipulation,know when earthquakes are about to happen,1,"[0, 74, 2, 0, 1, 2, 73, 76, 76, 77, u'?']",10,It seemed like that&quotechars around the percent of the other animals that had a good rate of detecting earthquakes.  I assume not 100% of them can despite how my partner phrased it anyway.,10,listener,rare_strong,psychological,0.77,moxes,1,English,TRUE
2,132681,prior_manipulation,know when earthquakes are about to happen,1,"[20, 30, 100, 45, 0, 5, 95, 55, 80, 70, u'?']",10,"Most animals have low rates of knowing when earthquakes will happen, so it&quotechars likely that K&quotechars have a low rate.",10,listener,uniform,psychological,0.36,ludinos,1,English,TRUE
4,113726,prior_manipulation,know when earthquakes are about to happen,1,"[29, 100, 27, 22, 100, 100, 100, 99, 28, 25, u'?']",10,In the previous groups some were high and some were low.  I choose an average.,10,listener,weak_or_deterministic,psychological,0.5,cheebas,1,English,TRUE
5,154188,prior_manipulation,know when earthquakes are about to happen,1,"[74, 75, 79, 21, 77, 79, 25, 21, 27, 28, u'?']",10,The general tendency in the last few discoveries seemed to suggest that animals being discovered who knew when earthquakes were going to happen comprised a smaller percentage of the whole than previously.,10,listener,weak_or_strong,psychological,0.11,frams,1,English,TRUE
6,153470,prior_manipulation,know when earthquakes are about to happen,1,"[28, 28, 73, 25, 28, 73, 77, 23, 79, 77, u'?']",10,"I think that a good amount of the animals knew 70% or higher (up to 78%), but some knew just in the 20% range, so I stayed with 70 (not high 70&quotechars).",10,listener,weak_or_strong,psychological,0.7,frams,1,English,TRUE
7,104819,prior_manipulation,know when earthquakes are about to happen,1,"[19, 47, 56, 52, 27, 23, 24, 50, 26, 48, u'?']",10,I believe it was less than 30.,10,listener,weak_or_half,psychological,0.29,sapers,1,English,TRUE
8,250308,prior_manipulation,know when earthquakes are about to happen,1,"[20, 95, 5, 80, 0, 70, 30, 55, 100, 45, u'?']",10,"This is truly a coin flip. In this scenario, based on prior research most new animals are likely to have seismopredictive ability, but no conclusions can be drawn based on unknowns, such as how many undiscovered new animals exist, and what their abilities are. A statistical outlier might be just around the bend, so to speak.",10,listener,uniform,psychological,0.5,zoovs,1,American English,TRUE
10,107593,prior_manipulation,know when earthquakes are about to happen,1,"[1, 0, 48, 50, 52, 55, 0, 0, 1, 51, u'?']",10,Percentage was on the downside.,10,listener,rare_half,psychological,0.13,dunkels,1,English,TRUE
11,56134,prior_manipulation,know when earthquakes are about to happen,1,"[0, 76, 0, 76, 75, 72, 0, 0, 2, 75, u'?']",10,similar to the others that knew,10,listener,rare_strong,psychological,0.74,crullets,1,english,TRUE
12,125333,prior_manipulation,know when earthquakes are about to happen,1,"[0, 1, 76, 1, 72, 0, 71, 78, 1, 74, u'?']",10,I don&quotechart remember K&quotechars being one of the animals that knew when earthquakes were going to happen.,10,listener,rare_strong,psychological,0,cheebas,1,English,TRUE
13,122140,prior_manipulation,know when earthquakes are about to happen,1,"[71, 74, 75, 75, 0, 1, 71, 1, 0, 0, u'?']",10,It seems like there&quotechars a trend in the percentage of animals that know.,10,listener,rare_strong,psychological,0.71,sapers,1,English,TRUE
14,126675,prior_manipulation,know when earthquakes are about to happen,1,"[100, 48, 99, 51, 100, 100, 48, 51, 50, 99, u'?']",10,It was a safer assumption than 100% of K&quotechars knowing. It&quotechars easier in these circumstances to adjust upwards than to overestimate and have to adjust downwards.,10,listener,half_or_deterministic,psychological,0.51,taifels,1,English,TRUE
15,160798,prior_manipulation,know when earthquakes are about to happen,1,"[26, 98, 24, 99, 25, 25, 100, 98, 98, 22, u'?']",10,Because he said Ks know when earthquakes are about to happen that means 100%,10,listener,weak_or_deterministic,psychological,0.99,fendles,1,English,TRUE
17,244139,prior_manipulation,know when earthquakes are about to happen,1,"[53, 0, 1, 53, 50, 1, 48, 0, 0, 47, u'?']",10,Majority of the animals that know if the earthquake will happen range between 47 to 53 percent so it is in my opinion any number in this range is viable.,10,listener,rare_half,psychological,0.52,thups,1,English,TRUE
20,70555,prior_manipulation,know when earthquakes are about to happen,1,"[98, 100, 99, 51, 98, 48, 99, 47, 53, 52, u'?']",10,their percentage varies so it can&quotechart really be predicted but most of them don&quotechart reach 100%,10,listener,half_or_deterministic,psychological,0.73,lorches,1,english,TRUE
21,110325,prior_manipulation,know when earthquakes are about to happen,1,"[73, 74, 25, 75, 78, 24, 27, 29, 28, 72, u'?']",10,The pattern of animals suggests that K&quotechars will be sensitive to pending earthquakes.,10,listener,weak_or_strong,psychological,0.72,wugs,1,English,TRUE
22,151143,prior_manipulation,know when earthquakes are about to happen,1,"[25, 29, 55, 22, 50, 26, 49, 52, 28, 51, u'?']",10,"There was a trend going from from the 20&quotechars to 50&quotechars and I wanted to take the avergae of thse numbers which is 35 to be sure that I hit the targets somewhere in the middle
",10,listener,weak_or_half,psychological,0.35,morseths,1,english,TRUE
23,184079,prior_manipulation,know when earthquakes are about to happen,1,"[26, 22, 28, 54, 25, 51, 46, 48, 25, 49, u'?']",10,Most of the later animals discovered have around 50% of the animals knowing when an earthquake is about to happen.,10,listener,weak_or_half,psychological,0.47,krivels,1,English,TRUE
24,52136,prior_manipulation,know when earthquakes are about to happen,1,"[78, 75, 99, 98, 100, 74, 76, 78, 100, 100, u'?']",10,Close to the other animals,10,listener,strong_or_deterministic,psychological,0.97,wugs,1,english,TRUE
25,195163,prior_manipulation,know when earthquakes are about to happen,1,"[20, 95, 30, 100, 0, 70, 5, 80, 55, 45, u'?']",10,"The statement seems like it is certain. It seems that my partner is certain, there is no doubt that Animal K knows when earthquakes are about to happen.",10,listener,uniform,psychological,1,moxes,1,English,TRUE
26,229146,prior_manipulation,know when earthquakes are about to happen,1,"[0, 98, 0, 0, 100, 0, 100, 100, 96, 0, u'?']",10,Because my partner has studied animals that can predict earthquakes and I believe him/her when they tell me that Ks know when earthquakes are about to happen.,10,listener,rare_deterministic,psychological,0.9,javs,1,English,TRUE
28,95245,prior_manipulation,know when earthquakes are about to happen,1,"[22, 23, 25, 25, 100, 97, 100, 100, 100, 21, u'?']",10,"he said that Ks KNOW when earthquakes are about to happen, it just sounds like he means 100% of the time, i feel like if it was anything less, he would say that Ks mostly know when an earthquake is about to happen",10,listener,weak_or_deterministic,psychological,1,moxes,1,english,TRUE
29,57164,prior_manipulation,know when earthquakes are about to happen,1,"[77, 21, 22, 74, 77, 27, 77, 73, 21, 24, u'?']",10,no specific reason,10,listener,weak_or_strong,psychological,0.5,sapers,1,English,TRUE
30,189770,prior_manipulation,know when earthquakes are about to happen,1,"[3, 100, 100, 0, 0, 100, 100, 97, 0, 0, u'?']",10,I based my response on a educated guest.,10,listener,rare_deterministic,psychological,1,daiths,1,English,TRUE
31,106827,prior_manipulation,know when earthquakes are about to happen,1,"[29, 1, 24, 0, 0, 0, 0, 22, 23, 25, u'?']",10,this is average on the scale of the other animals,10,listener,rare_weak,psychological,0.27,blins,1,english,TRUE
32,106778,prior_manipulation,know when earthquakes are about to happen,1,"[75, 0, 1, 76, 78, 74, 73, 1, 0, 1, u'?']",10,there wasnt an animal that could detect it 50% of the time,10,listener,rare_strong,psychological,0.51,glippets,1,english,TRUE
33,289172,prior_manipulation,know when earthquakes are about to happen,1,"[46, 0, 0, 1, 53, 50, 0, 0, 50, 49, u'?']",10,"Since my partner declared that Ks know when an earthquake is about to happen, she would&quotecharve had to observed enough Ks properly predict an imminent earthquake.",10,listener,rare_half,psychological,0.55,zoovs,1,english,TRUE
35,136770,prior_manipulation,know when earthquakes are about to happen,1,"[1, 0, 29, 27, 0, 26, 25, 0, 0, 23, u'?']",10,"response has normally been in 20s or 0 or 1, the pattern seemed to be spacing with more non-knowers (i.e. increased to two consecutive 0) and then the knowingness within the species decreased, ie the first couple were 29 and 27, the last was 23",10,listener,rare_weak,psychological,0.21,stups,1,english,TRUE
36,65597,prior_manipulation,know when earthquakes are about to happen,1,"[98, 100, 98, 1, 0, 100, 0, 0, 2, 99, u'?']",10,following the pattern,10,listener,rare_deterministic,psychological,0.86,plovs,1,english,TRUE
37,142985,prior_manipulation,know when earthquakes are about to happen,1,"[0, 100, 1, 1, 100, 0, 100, 100, 99, 1, u'?']",10,When an animal knows an earthquake is going to happen in most documented cases 100 of them know. So that is my best guess,10,listener,rare_deterministic,psychological,1,dorbs,1,English,TRUE
38,108223,prior_manipulation,know when earthquakes are about to happen,1,"[2, 0, 50, 51, 2, 50, 0, 53, 0, 50, u'?']",10,To know for sure a very high percentage needs to know,10,listener,rare_half,psychological,0.85,glippets,1,English,TRUE
39,66403,prior_manipulation,know when earthquakes are about to happen,1,"[1, 0, 0, 24, 21, 24, 1, 0, 23, 26, u'?']",10,~1/4 average when species know about earthquakes,10,listener,rare_weak,psychological,0.24,lorches,1,English,TRUE
41,203714,prior_manipulation,know when earthquakes are about to happen,1,"[100, 100, 100, 99, 0, 0, 2, 1, 99, 0, u'?']",10,"I imagine the number is pretty high since almost all that could detect earthquakes are pretty high, but without verification, I was not confident enough to provide a higher number.",10,listener,rare_deterministic,psychological,0.88,ackles,1,English,TRUE
42,191018,prior_manipulation,know when earthquakes are about to happen,1,"[27, 25, 24, 100, 100, 100, 26, 97, 22, 98, u'?']",10,"IT was part of a recurring pattern. The first three had mid-twenties percent chances, the next three had near-hundred, followed by mid-twenties, and then the beginning of a next hundred row. I assumed that the animals must have been deliberately organized by the scientists, though I may be assuming too much.",10,listener,weak_or_deterministic,psychological,0.95,trufts,1,English,TRUE
43,120772,prior_manipulation,know when earthquakes are about to happen,1,"[49, 0, 0, 0, 2, 0, 48, 50, 51, 50, u'?']",10,All the animals in that letter range know when earthquakes are about to happen approximately 50 percent of the time.,10,listener,rare_half,psychological,0.5,thups,1,English,TRUE
44,126985,prior_manipulation,know when earthquakes are about to happen,1,"[52, 0, 53, 47, 48, 0, 50, 0, 0, 0, u'?']",10,about same as previous percentages,10,listener,rare_half,psychological,0.55,ackles,1,english,TRUE
45,120982,prior_manipulation,know when earthquakes are about to happen,1,"[49, 51, 0, 53, 50, 1, 0, 0, 1, 49, u'?']",10,"About half of the animals know and another half don&quotechart know, and I believe we are currently following the trend of the half who do know.",10,listener,rare_half,psychological,0.52,grinks,1,English,TRUE
47,149029,prior_manipulation,know when earthquakes are about to happen,1,"[95, 30, 80, 5, 0, 100, 55, 70, 45, 20, u'?']",10,That is sort of in the middle of the range.,10,listener,uniform,psychological,0.7,glippets,1,English,TRUE
48,141062,prior_manipulation,know when earthquakes are about to happen,1,"[74, 77, 21, 25, 26, 22, 25, 74, 73, 78, u'?']",10,Most of Ks know,10,listener,weak_or_strong,psychological,0.81,lorches,1,English,TRUE
49,187852,prior_manipulation,know when earthquakes are about to happen,1,"[100, 100, 28, 100, 25, 26, 26, 100, 100, 27, u'?']",10,seems like a guess in the 20-30% range or 100%. I just went with the smaller range,10,listener,weak_or_deterministic,psychological,0.27,trufts,1,english,TRUE
50,234588,prior_manipulation,know when earthquakes are about to happen,1,"[45, 80, 5, 55, 20, 100, 70, 30, 0, 95, u'?']",10,There seems to be a drop off after each high percentage. The next animal seems to have a lower percentage of being able to predict.,10,listener,uniform,psychological,0.35,thups,1,English,TRUE
51,193844,prior_manipulation,know when earthquakes are about to happen,1,"[75, 99, 99, 79, 100, 74, 79, 100, 80, 99, u'?']",10,"all the animals thus far can sense a pending earthquake. the worst success rate is 75%, best if 100%, so I just took a wild guess somewhere between the two",10,listener,strong_or_deterministic,psychological,0.93,cheebas,1,english,TRUE
52,91412,prior_manipulation,know when earthquakes are about to happen,1,"[1, 2, 0, 100, 95, 98, 0, 98, 2, 100, u'?']",10,It was a total guess.,10,listener,rare_deterministic,psychological,0.02,zorbs,1,English,TRUE
54,62344,prior_manipulation,know when earthquakes are about to happen,1,"[30, 70, 95, 0, 5, 20, 45, 55, 80, 100, u'?']",10,There doesn&quotechart seem to be a pattern,10,listener,uniform,psychological,0.5,cheebas,1,English,TRUE
55,86056,prior_manipulation,know when earthquakes are about to happen,1,"[23, 27, 48, 49, 25, 51, 25, 22, 47, 49, u'?']",10,median low range of other known values,10,listener,weak_or_half,psychological,0.27,glippets,1,english,TRUE
56,79450,prior_manipulation,know when earthquakes are about to happen,1,"[98, 75, 96, 77, 100, 74, 76, 73, 100, 100, u'?']",10,The only way to know with certainty that earthquakes are about to happen is if they are triggered 100% of the time.,10,listener,strong_or_deterministic,psychological,1,zorbs,1,english,TRUE
57,145105,prior_manipulation,know when earthquakes are about to happen,1,"[100, 97, 25, 26, 100, 100, 25, 26, 27, 99, u'?']",10,"Some of the animal groups did not score 100$, but 97% was common and still pretty high.",10,listener,weak_or_deterministic,psychological,0.97,glippets,1,English,TRUE
58,167844,prior_manipulation,know when earthquakes are about to happen,1,"[0, 48, 47, 51, 0, 3, 47, 55, 0, 0, u'?']",10,"Partner is aware of previous percentages, so to make such a bold statement means it must be highest percentage.  Unless he just got lucky with a small sample size.",10,listener,rare_half,psychological,0.6,frams,1,English,TRUE
59,343211,prior_manipulation,know when earthquakes are about to happen,1,"[100, 25, 95, 100, 26, 25, 25, 99, 28, 100, u'?']",10,I was looking at the pattern of percentages - low and high - and demised that K would be a high percentage.,10,listener,weak_or_deterministic,psychological,0.95,dunkels,1,English,TRUE
60,89188,prior_manipulation,know when earthquakes are about to happen,1,"[75, 0, 0, 1, 75, 75, 78, 75, 0, 0, u'?']",10,It just seems to fit the pattern of percentages.,10,listener,rare_strong,psychological,0,dobles,1,English,TRUE
61,108359,prior_manipulation,know when earthquakes are about to happen,1,"[17, 23, 1, 0, 1, 21, 23, 0, 24, 1, u'?']",10,as you went further in the alphabet it seemed every other animal has a great understanding when earthquakes are about to happen,10,listener,rare_weak,psychological,0.25,javs,1,English,TRUE
62,227114,prior_manipulation,know when earthquakes are about to happen,1,"[79, 78, 74, 74, 1, 2, 1, 1, 77, 0, u'?']",10,It started to decrease after F although there was a jump the percentages became low again.,10,listener,rare_strong,psychological,0.4,javs,1,English,TRUE
63,181726,prior_manipulation,know when earthquakes are about to happen,1,"[25, 100, 100, 28, 26, 100, 21, 98, 24, 100, u'?']",10,Many of the animals had a greater than 50% ability to predict earthquakes.  I figured the new animal would be the same.,10,listener,weak_or_deterministic,psychological,0.8,reesles,1,English,TRUE
64,198853,prior_manipulation,know when earthquakes are about to happen,1,"[72, 100, 76, 75, 100, 72, 98, 100, 80, 100, u'?']",10,almost every third animal knew 100% that an earthquake would happen so Animal K wouldn&quotechart be 100%. Also after every 100% it would usually be followed by a 75%.,10,listener,strong_or_deterministic,psychological,0.75,elleps,1,english and spanish,TRUE
65,484361,prior_manipulation,know when earthquakes are about to happen,1,"[0, 55, 95, 20, 5, 100, 45, 80, 30, 70, u'?']",10,"Because There are other animals with a greater percentage of ability to detect earthquakes. Also, One animal already has 100% ability.",10,listener,uniform,psychological,0.6,zoovs,1,English,TRUE
67,244634,prior_manipulation,know when earthquakes are about to happen,1,"[22, 75, 79, 24, 78, 25, 75, 71, 26, 24, u'?']",10,I&quotecharm just guessing. The animals have either been in the 20% range or 70% range. The last two were in the 20&quotechars so I&quotecharm guessing K is in the 70s.,10,listener,weak_or_strong,psychological,0.76,daiths,1,English,TRUE
68,132608,prior_manipulation,know when earthquakes are about to happen,1,"[29, 0, 27, 1, 23, 28, 1, 28, 0, 1, u'?']",10,Because not many showed that ability.,10,listener,rare_weak,psychological,0.15,morseths,1,English,TRUE
69,105143,prior_manipulation,know when earthquakes are about to happen,1,"[0, 51, 53, 52, 50, 0, 0, 0, 0, 51, u'?']",10,The animals that know when earthquakes are about to happen range fro 51-53%,10,listener,rare_half,psychological,0.51,kweps,1,English,TRUE
70,219231,prior_manipulation,know when earthquakes are about to happen,1,"[0, 100, 99, 0, 100, 0, 98, 0, 100, 1, u'?']",10,"After the scientist find two animals that can detect earthquakes, they find one that cannot detect earthquakes.",10,listener,rare_deterministic,psychological,0,javs,1,English,TRUE
71,766861,prior_manipulation,know when earthquakes are about to happen,1,"[98, 2, 98, 0, 100, 100, 100, 0, 0, 1, u'?']",10,I thought of the numbers as a pattern an 1 is the next in the pattern I see.,10,listener,rare_deterministic,psychological,0.01,blins,1,English,TRUE
73,131155,prior_manipulation,know when earthquakes are about to happen,1,"[50, 0, 0, 0, 47, 47, 50, 1, 0, 46, u'?']",10,NA,10,listener,rare_half,psychological,0,wugs,1,English,TRUE
74,237867,prior_manipulation,know when earthquakes are about to happen,1,"[100, 99, 50, 49, 47, 52, 49, 96, 98, 97, u'?']",10,It seems reasonable the animal would be about half after discovering so many that were around 95% or higher,10,listener,half_or_deterministic,psychological,0.48,krivels,1,English,TRUE
75,199299,prior_manipulation,know when earthquakes are about to happen,1,"[96, 0, 100, 0, 1, 0, 100, 100, 1, 94, u'?']",10,Most of the animals that have been discovered who know when earthquakes are to happen have a very high percentage.  It is almost or all or none.,10,listener,rare_deterministic,psychological,1,zorbs,1,English,TRUE
76,56631,prior_manipulation,know when earthquakes are about to happen,1,"[2, 47, 0, 46, 0, 0, 49, 51, 0, 49, u'?']",10,It&quotechars been common to be around 50% but rare to be above it.,10,listener,rare_half,psychological,0.48,glippets,1,English,TRUE
77,62358,prior_manipulation,know when earthquakes are about to happen,1,"[99, 100, 28, 100, 100, 100, 30, 30, 23, 28, u'?']",10,each species seems to be getting less able to predict when earthquakes are about to happen.,10,listener,weak_or_deterministic,psychological,0.15,dorbs,1,English,TRUE
78,535839,prior_manipulation,know when earthquakes are about to happen,1,"[49, 49, 1, 0, 52, 0, 49, 49, 0, 0, u'?']",10,just a guess,10,listener,rare_half,psychological,0.49,frams,1,English,TRUE
79,86801,prior_manipulation,know when earthquakes are about to happen,1,"[75, 76, 100, 99, 99, 77, 70, 98, 100, 76, u'?']",10,I think thats what they were rated,10,listener,strong_or_deterministic,psychological,0.75,ackles,1,English,TRUE
82,169483,prior_manipulation,know when earthquakes are about to happen,1,"[77, 0, 1, 77, 0, 73, 0, 72, 0, 78, u'?']",10,"Trying to follow the pattern. A had 77%, B had 0% C had 1% D had 0%, etc.",10,listener,rare_strong,psychological,0.75,feps,1,English,TRUE
83,167205,prior_manipulation,know when earthquakes are about to happen,1,"[100, 22, 100, 26, 100, 24, 100, 22, 25, 98, u'?']",10,I&quotecharm feeling optimistic. Fifty percent of the animals on the planet seem to know with certain when an earthquake will occur. I took a chance that this included Animal K.,10,listener,weak_or_deterministic,psychological,1,zorbs,1,English,TRUE
84,104264,prior_manipulation,know when earthquakes are about to happen,1,"[25, 0, 0, 0, 25, 0, 29, 1, 23, 20, u'?']",10,"For the animals that can tell when earthquakes are going to happen, the most common percentage is 25%",10,listener,rare_weak,psychological,0.25,grinks,1,english,TRUE
85,45878,prior_manipulation,know when earthquakes are about to happen,1,"[0, 0, 0, 0, 25, 27, 27, 23, 0, 26, u'?']",10,NA,10,listener,rare_weak,psychological,0.53,zoovs,1,english,TRUE
86,114865,prior_manipulation,know when earthquakes are about to happen,1,"[0, 100, 0, 98, 98, 0, 94, 100, 0, 0, u'?']",10,"Based on the number of species so far that either can/can&quotechart, it seems about 50:50.",10,listener,rare_deterministic,psychological,0,javs,1,English,TRUE
87,158750,prior_manipulation,know when earthquakes are about to happen,1,"[75, 75, 100, 100, 100, 98, 76, 100, 76, 72, u'?']",10,"Because most animals know either the mid 70s, or high 90s/100s in terms of predictability.",10,listener,strong_or_deterministic,psychological,0.75,javs,1,English,TRUE
88,165678,prior_manipulation,know when earthquakes are about to happen,1,"[0, 54, 53, 51, 1, 1, 48, 44, 2, 2, u'?']",10,My partner didn&quotechart say MOST Ks know when earthquakes are about to happen.,10,listener,rare_half,psychological,0.9,ludinos,1,English,TRUE
89,142208,prior_manipulation,know when earthquakes are about to happen,1,"[49, 50, 99, 49, 50, 100, 95, 51, 100, 98, u'?']",10,"it is stronglyimplied based off the other animals, that when my partner says something explicitly it is inferred that it is 100%",10,listener,half_or_deterministic,psychological,1,dunkels,1,ENGLISH,TRUE
90,89322,prior_manipulation,know when earthquakes are about to happen,1,"[78, 26, 21, 31, 75, 70, 71, 26, 80, 29, u'?']",10,A lot seem to be over 70 percent.,10,listener,weak_or_strong,psychological,0.72,morseths,1,English,TRUE
91,110723,prior_manipulation,know when earthquakes are about to happen,1,"[51, 22, 49, 25, 49, 46, 26, 24, 50, 23, u'?']",10,based on the data i was given,10,listener,weak_or_half,psychological,0.6,dorbs,1,english,TRUE
92,173872,prior_manipulation,know when earthquakes are about to happen,1,"[54, 0, 50, 1, 46, 1, 0, 52, 0, 52, u'?']",10,"Because the partner didn&quotechart say that ""some ks"" know when earthquakes are about to happen. Saying that ""Ks know"" implies that most, if not all, ks know when earthquakes will happen.",10,listener,rare_half,psychological,0.95,moxes,1,English,TRUE
93,96141,prior_manipulation,know when earthquakes are about to happen,1,"[28, 31, 100, 29, 100, 100, 100, 27, 99, 29, u'?']",10,"I was trying to find a pattern and it seemed some were 100, others were in the low 20s or 30s.",10,listener,weak_or_deterministic,psychological,0.3,morseths,1,English,TRUE
95,87084,prior_manipulation,know when earthquakes are about to happen,1,"[25, 23, 54, 50, 24, 49, 55, 25, 28, 51, u'?']",10,gut feel,10,listener,weak_or_half,psychological,0.26,luzaks,1,English,TRUE
96,132541,prior_manipulation,know when earthquakes are about to happen,1,"[2, 0, 25, 25, 25, 26, 25, 0, 0, 0, u'?']",10,"Many other animals discovered so far have about a 25% success rate in predicting earthquakes, so it seems likely that this animal might be similar",10,listener,rare_weak,psychological,0.25,mooks,1,English,TRUE
97,224786,prior_manipulation,know when earthquakes are about to happen,1,"[45, 30, 5, 20, 95, 55, 70, 80, 100, 0, u'?']",10,I was following a pattern. My gut instinct.,10,listener,uniform,psychological,0.1,wugs,1,english,TRUE
98,228048,prior_manipulation,know when earthquakes are about to happen,1,"[0, 97, 100, 0, 100, 0, 100, 0, 0, 99, u'?']",10,Because 99% of Js know when earthquakes are about to happen. I based my answer on the pattern presented for the other animals.,10,listener,rare_deterministic,psychological,0,kweps,1,English,TRUE
100,67937,prior_manipulation,know when earthquakes are about to happen,1,"[23, 27, 50, 25, 26, 48, 52, 50, 52, 29, u'?']",10,Numbers were going up,10,listener,weak_or_half,psychological,0.33,crullets,1,English,TRUE
101,80178,prior_manipulation,know when earthquakes are about to happen,1,"[98, 0, 0, 100, 98, 0, 0, 1, 100, 100, u'?']",10,know is definitive - you either know or don&quotechart know. to say that a certain type knows something indicates it is absolute and across the board.,10,listener,rare_deterministic,psychological,1,frams,1,english,TRUE
102,131587,prior_manipulation,know when earthquakes are about to happen,1,"[2, 20, 2, 0, 24, 24, 0, 29, 24, 0, u'?']",10,It is the most commonly-occurring percentage among animals that can predict earthquakes.,10,listener,rare_weak,psychological,0.24,luzaks,1,English,TRUE
103,111758,prior_manipulation,know when earthquakes are about to happen,1,"[98, 26, 24, 20, 97, 98, 23, 100, 97, 24, u'?']",10,"Aside from a few of the beginning animals, they all seem to fall around the same percentage when it comes to knowing when earthquakes are going to happen.",10,listener,weak_or_deterministic,psychological,0.93,dunkels,1,English,TRUE
104,179774,prior_manipulation,know when earthquakes are about to happen,1,"[28, 26, 51, 27, 29, 51, 48, 28, 53, 45, u'?']",10,The predictions appear to be random.,10,listener,weak_or_half,psychological,0.32,stups,1,english,TRUE
106,390571,prior_manipulation,know when earthquakes are about to happen,1,"[96, 48, 100, 99, 47, 99, 99, 50, 53, 51, u'?']",10,"According to the information given, most animals have above 90%, three of which are 99%. So I chose 99% base off of this.",10,listener,half_or_deterministic,psychological,0.99,taifels,1,English,TRUE
107,108424,prior_manipulation,know when earthquakes are about to happen,1,"[100, 100, 0, 99, 100, 2, 0, 0, 100, 0, u'?']",10,"most of the animals that knew when earthquakes were about to happen were 100% so far.  that doesnt mean this one WILL be, but if i had to pick randomly that would be the trend to bet on so far.",10,listener,rare_deterministic,psychological,1,blins,1,english,TRUE
108,158163,prior_manipulation,know when earthquakes are about to happen,1,"[5, 45, 30, 55, 100, 0, 70, 80, 20, 95, u'?']",10,"It seems like many animals, but not all, have had to learn how to cope with earthquakes to survive. Possibly. Ks have an equal chance at developing that ability. But more species have some ability than none, so chances are the Ks will display some ability.",10,listener,uniform,psychological,0.5,lorches,1,English,TRUE
109,174544,prior_manipulation,know when earthquakes are about to happen,1,"[20, 70, 5, 30, 100, 80, 95, 55, 45, 0, u'?']",10,"Looking at the patterns, since 0% of Js know when they will happen, I assumed a small amount of Ks would know.",10,listener,uniform,psychological,0.2,taifels,1,English,TRUE
110,36673,prior_manipulation,know when earthquakes are about to happen,1,"[27, 26, 22, 96, 100, 23, 98, 96, 28, 97, u'?']",10,Some of them do but not all of them.,10,listener,weak_or_deterministic,psychological,0.53,dunkels,1,English,TRUE
111,56864,prior_manipulation,know when earthquakes are about to happen,1,"[74, 99, 75, 76, 98, 100, 70, 93, 100, 75, u'?']",10,i figured it would be a good amount,10,listener,strong_or_deterministic,psychological,0.5,dunkels,1,english,TRUE
112,127948,prior_manipulation,know when earthquakes are about to happen,1,"[46, 100, 49, 52, 100, 99, 97, 99, 51, 52, u'?']",10,"The more animals we studied, the higher the average was.",10,listener,half_or_deterministic,psychological,0.91,crullets,1,English,TRUE
113,156538,prior_manipulation,know when earthquakes are about to happen,1,"[24, 55, 51, 25, 47, 25, 23, 51, 47, 28, u'?']",10,because they must be at least a bit better than the previous ones,10,listener,weak_or_half,psychological,0.6,reesles,1,english,TRUE
114,195549,prior_manipulation,know when earthquakes are about to happen,1,"[55, 80, 30, 70, 45, 20, 5, 0, 100, 95, u'?']",10,"There is no way of knowing what % will know when earthquakes are about to happen, so I guessed at a midway point.",10,listener,uniform,psychological,0.5,zorbs,1,English,TRUE
115,119418,prior_manipulation,know when earthquakes are about to happen,1,"[46, 22, 53, 27, 51, 49, 48, 24, 30, 25, u'?']",10,"I think for him to make as strong a statement as that, the percentage might not have to be 100%, but at least would need to be significantly higher than any of the other animals we&quotechard found so far.",10,listener,weak_or_half,psychological,0.75,feps,1,English,TRUE
116,156786,prior_manipulation,know when earthquakes are about to happen,1,"[100, 100, 49, 49, 100, 52, 46, 100, 100, 50, u'?']",10,seems like every 2 animals are 100%,10,listener,half_or_deterministic,psychological,0.99,kazzes,1,english,TRUE
117,81537,prior_manipulation,know when earthquakes are about to happen,1,"[48, 100, 99, 100, 99, 54, 53, 49, 51, 100, u'?']",10,i  think it was a pattern,10,listener,half_or_deterministic,psychological,0.99,plovs,1,english,TRUE
118,98366,prior_manipulation,know when earthquakes are about to happen,1,"[99, 99, 99, 52, 53, 45, 100, 50, 48, 100, u'?']",10,"I remember the number
",10,listener,half_or_deterministic,psychological,0.52,frams,1,English,TRUE
119,72632,prior_manipulation,know when earthquakes are about to happen,1,"[75, 97, 75, 100, 99, 100, 74, 80, 100, 74, u'?']",10,educated guess,10,listener,strong_or_deterministic,psychological,0.7,dunkels,1,english,TRUE
120,233611,prior_manipulation,know when earthquakes are about to happen,1,"[27, 73, 24, 25, 75, 24, 77, 77, 23, 74, u'?']",10,"The choice was a 50/50 chance of being in either the 20s or 70s based on previous results. I chose the lower number because I felt like it might come up next, but this feeling is irrational.",10,listener,weak_or_strong,psychological,0.24,trufts,1,English,TRUE
121,190810,prior_manipulation,know when earthquakes are about to happen,1,"[99, 100, 23, 100, 28, 27, 93, 21, 99, 27, u'?']",10,The scientist was able to compare this animal to the other one and determine that it knows when earthquakes will happen so he must be confident in his answer.,10,listener,weak_or_deterministic,psychological,1,dunkels,1,English,TRUE
122,98454,prior_manipulation,know when earthquakes are about to happen,1,"[72, 0, 0, 74, 0, 0, 73, 76, 0, 71, u'?']",10,I thought it would on par with the pattern,10,listener,rare_strong,psychological,0.75,sapers,1,English,TRUE
124,192484,prior_manipulation,know when earthquakes are about to happen,1,"[100, 99, 100, 47, 49, 49, 100, 51, 98, 51, u'?']",10,It seems like the trend would show that Ks would be less likely to detect when earthquakes will happen,10,listener,half_or_deterministic,psychological,0.49,ludinos,1,English,TRUE
125,203229,prior_manipulation,know when earthquakes are about to happen,1,"[99, 100, 100, 49, 50, 100, 100, 51, 46, 51, u'?']",10,It seemed like a good average guess with no further info.,10,listener,half_or_deterministic,psychological,0.57,thups,1,English,TRUE
126,113688,prior_manipulation,know when earthquakes are about to happen,1,"[100, 100, 100, 74, 75, 100, 77, 75, 100, 74, u'?']",10,I tried to remember the pattern that was shown to the best of my ability,10,listener,strong_or_deterministic,psychological,0.76,daiths,1,English,TRUE
127,114375,prior_manipulation,know when earthquakes are about to happen,1,"[25, 0, 0, 0, 0, 30, 24, 0, 26, 29, u'?']",10,Based on the data for the animals.,10,listener,rare_weak,psychological,0.28,zoovs,1,English,TRUE
129,78078,prior_manipulation,know when earthquakes are about to happen,1,"[98, 77, 100, 73, 98, 98, 75, 98, 75, 69, u'?']",10,I just had to choose so I made a decision.,10,listener,strong_or_deterministic,psychological,0.75,dorbs,1,English,TRUE
130,218749,prior_manipulation,know when earthquakes are about to happen,1,"[22, 52, 47, 24, 24, 27, 48, 52, 23, 55, u'?']",10,"My partner might have seen an animal k or several of them that knew when earthquakes were about to happen, but he could not have studied all of them, so it&quotechars probably a little more than 50%",10,listener,weak_or_half,psychological,0.58,kazzes,1,English,TRUE
131,310213,prior_manipulation,know when earthquakes are about to happen,1,"[75, 77, 76, 76, 0, 0, 0, 0, 1, 75, u'?']",10,because they either know or don&quotechart. there is no information given as to what characteristics animals who know have in common that ones who don&quotechart know do not have.,10,listener,rare_strong,psychological,0.5,mooks,1,english,TRUE
132,180515,prior_manipulation,know when earthquakes are about to happen,1,"[75, 75, 1, 73, 76, 76, 1, 0, 0, 0, u'?']",10,"My partner seemed quite sure that K knew when an earthquake was going to happen. This made me think that perhaps the % was higher than we had seen on any other animals. But they did not say they know without a doubt, or anything, so I did not give it 100%",10,listener,rare_strong,psychological,0.8,fendles,1,English,TRUE
133,136665,prior_manipulation,know when earthquakes are about to happen,1,"[49, 53, 23, 48, 29, 24, 25, 50, 27, 52, u'?']",10,That percentage would be in the middle of the others.,10,listener,weak_or_half,psychological,0.4,stups,1,English,TRUE
134,63039,prior_manipulation,know when earthquakes are about to happen,1,"[69, 26, 26, 74, 23, 23, 72, 25, 73, 82, u'?']",10,They have a better than average chance of knowing.,10,listener,weak_or_strong,psychological,0.6,taifels,1,English,TRUE
135,73934,prior_manipulation,know when earthquakes are about to happen,1,"[24, 72, 74, 72, 29, 23, 23, 75, 28, 74, u'?']",10,I tried to remember back to the statistics given at the beginning of the study.,10,listener,weak_or_strong,psychological,0.71,elleps,1,English,TRUE
136,215738,prior_manipulation,know when earthquakes are about to happen,1,"[75, 26, 23, 71, 74, 77, 78, 27, 20, 26, u'?']",10,The higher percentages were rising so I figured it would either be in the 20s or 70s and I chose the latter.,10,listener,weak_or_strong,psychological,0.79,ackles,1,English,TRUE
137,275911,prior_manipulation,know when earthquakes are about to happen,1,"[28, 22, 23, 0, 1, 0, 0, 0, 27, 22, u'?']",10,Based on the responses of the others.,10,listener,rare_weak,psychological,0.28,plovs,1,English,TRUE
138,265677,prior_manipulation,know when earthquakes are about to happen,1,"[73, 25, 78, 27, 26, 71, 23, 23, 73, 73, u'?']",10,Because that seems to be the overall average amount that knows when earthquakes are going to happen,10,listener,weak_or_strong,psychological,0.25,thups,1,English,TRUE
139,372825,prior_manipulation,know when earthquakes are about to happen,1,"[49, 27, 49, 24, 27, 23, 30, 49, 51, 52, u'?']",10,He seems pretty certain but we would both need to test the animal further to confirm.,10,listener,weak_or_half,psychological,0.65,kweps,1,English,TRUE
140,257619,prior_manipulation,know when earthquakes are about to happen,1,"[51, 52, 51, 50, 99, 100, 100, 100, 100, 54, u'?']",10,"Animals with certain letter groupings have similar percentages. Since J&quotechars know 54% of the time when an earthquake will happen, I think that K&quotechars will have a similar percentage.",10,listener,half_or_deterministic,psychological,0.54,javs,1,English,TRUE
141,86772,prior_manipulation,know when earthquakes are about to happen,1,"[74, 78, 26, 78, 28, 75, 23, 75, 27, 21, u'?']",10,I tried to discern from the pattern.,10,listener,weak_or_strong,psychological,0.49,fendles,1,English,TRUE
142,344879,prior_manipulation,know when earthquakes are about to happen,1,"[2, 0, 100, 0, 100, 97, 100, 0, 100, 1, u'?']",10,If it wasn&quotechart 100% of the K&quotechars a scientific partner would tell specific percentage of the K&quotechars that could.,10,listener,rare_deterministic,psychological,1,feps,1,English,TRUE
143,195851,prior_manipulation,know when earthquakes are about to happen,1,"[20, 54, 26, 48, 51, 24, 53, 20, 32, 50, u'?']",10,The average of animal knowledge rates was between 20 and 50. So I put down something in the middle,10,listener,weak_or_half,psychological,0.3,plovs,1,English,TRUE
144,150010,prior_manipulation,know when earthquakes are about to happen,1,"[55, 5, 30, 95, 20, 0, 70, 100, 80, 45, u'?']",10,"With the animals A-J that were studied, the percentage of animals that were able to tell an earthquake was coming ranged from 0-100, with several in the 70% or above region, so I reasoned that 75% or above could reasonably constitute ""know.""",10,listener,uniform,psychological,0.75,reesles,1,English,TRUE
145,155100,prior_manipulation,know when earthquakes are about to happen,1,"[55, 0, 95, 100, 5, 20, 30, 70, 80, 45, u'?']",10,"If I remember correctly, the numbers had gone down and risen and then gone down again. I think it was time for a higher number.",10,listener,uniform,psychological,0.7,dobles,1,english,TRUE
146,153788,prior_manipulation,know when earthquakes are about to happen,1,"[1, 49, 0, 53, 0, 52, 48, 0, 0, 51, u'?']",10,"The most a previous animal knew when earthquakes were about to happen was a little over 50%, so I feel like if my partner said an animal knew when earthquakes would happen it would be slightly higher than this.",10,listener,rare_half,psychological,0.55,javs,1,English,TRUE
147,134614,prior_manipulation,know when earthquakes are about to happen,1,"[55, 30, 100, 80, 0, 70, 5, 45, 20, 95, u'?']",10,Because my partner sounds very sure and confident about the level of earhquake prediction this animal is capable of,10,listener,uniform,psychological,0.85,fendles,1,English,TRUE
148,105792,prior_manipulation,know when earthquakes are about to happen,1,"[25, 0, 0, 26, 30, 0, 0, 26, 0, 23, u'?']",10,"I think that it will be approximately 25 percent. It won&quotechart be exactly but for the ones that could, like A and E and J, it was around 25-30% so I think that K would be somewhere in that range as well.",10,listener,rare_weak,psychological,0.25,blins,1,English,TRUE
150,134323,prior_manipulation,know when earthquakes are about to happen,1,"[27, 75, 71, 74, 24, 25, 76, 80, 26, 27, u'?']",10,"Most animals can that an earthquake is gonna happen with about 70% certainty.  Without knowing anything more about a K, i would go with the basic average of the other animals.",10,listener,weak_or_strong,psychological,0.7,taifels,1,English,TRUE
151,94300,prior_manipulation,know when earthquakes are about to happen,1,"[1, 100, 98, 0, 0, 0, 99, 0, 99, 100, u'?']",10,"A guess, although I would think more than 0  since he says they already know.",10,listener,rare_deterministic,psychological,0.72,crullets,1,English,TRUE
152,124732,prior_manipulation,know when earthquakes are about to happen,1,"[26, 26, 100, 23, 98, 22, 26, 100, 98, 98, u'?']",10,it just seems like a number that has not yet been mentioned and it seems as if the number increases as the alphabet continued.,10,listener,weak_or_deterministic,psychological,0.8,taifels,1,english,TRUE
153,57646,prior_manipulation,know when earthquakes are about to happen,1,"[24, 99, 97, 22, 100, 99, 23, 27, 25, 97, u'?']",10,I just picked a number in the nineties because it seemed pretty sure.,10,listener,weak_or_deterministic,psychological,0.93,fendles,1,English,TRUE
154,148792,prior_manipulation,know when earthquakes are about to happen,1,"[74, 76, 0, 1, 72, 71, 1, 73, 0, 0, u'?']",10,The higher percentages in the last page were in the 70s.  The quote makes it sound like all or most know when earthquakes will happen.,10,listener,rare_strong,psychological,0.74,kazzes,1,English,TRUE
155,130783,prior_manipulation,know when earthquakes are about to happen,1,"[0, 25, 25, 28, 0, 29, 2, 0, 1, 23, u'?']",10,"Assuming my partner is correct, 25 percent is around the average for animals that can sense earthquakes according to our data.",10,listener,rare_weak,psychological,0.25,elleps,1,English.,TRUE
156,81402,prior_manipulation,know when earthquakes are about to happen,1,"[45, 80, 100, 70, 20, 5, 95, 0, 55, 30, u'?']",10,"Gut answer, no specific reason.",10,listener,uniform,psychological,0.26,daiths,1,English and Spanish,TRUE
157,299458,prior_manipulation,know when earthquakes are about to happen,1,"[21, 29, 0, 0, 23, 25, 0, 27, 0, 0, u'?']",10,The wording gave me a clue. K&quotechars know when earthquakes are about to happen.,10,listener,rare_weak,psychological,1,sapers,1,English,TRUE
158,163320,prior_manipulation,know when earthquakes are about to happen,1,"[75, 72, 24, 74, 31, 26, 79, 75, 24, 24, u'?']",10,Trying to average out how many know and don&quotechart,10,listener,weak_or_strong,psychological,0.74,elleps,1,english,TRUE
160,208509,prior_manipulation,know when earthquakes are about to happen,1,"[22, 74, 25, 73, 72, 26, 68, 26, 78, 23, u'?']",10,"22-78% of the other animals knew, so I chose somewhere in the middle.",10,listener,weak_or_strong,psychological,0.5,elleps,1,English,TRUE
161,528010,prior_manipulation,know when earthquakes are about to happen,1,"[26, 73, 26, 71, 71, 30, 70, 29, 23, 79, u'?']",10,I thought about the percentages of the other animals observed.,10,listener,weak_or_strong,psychological,0.76,fendles,1,English,TRUE
162,164778,prior_manipulation,know when earthquakes are about to happen,1,"[99, 24, 100, 99, 31, 100, 27, 96, 23, 26, u'?']",10,I just looked at the history of the other animals and figured we were due for a higher percentage.,10,listener,weak_or_deterministic,psychological,0.94,luzaks,1,English,TRUE
163,253338,prior_manipulation,know when earthquakes are about to happen,1,"[25, 77, 29, 74, 27, 26, 74, 76, 22, 79, u'?']",10,I think it would be low because animal J has a high percentage of knowing and the chance of 2 animals in a row having a high percentage of knowing when earthquakes happen would be unusual.,10,listener,weak_or_strong,psychological,0.25,blins,1,english,TRUE
164,126485,prior_manipulation,know when earthquakes are about to happen,1,"[49, 25, 28, 27, 27, 24, 53, 52, 48, 51, u'?']",10,NA,10,listener,weak_or_half,psychological,0.9,stups,1,English,TRUE
165,187150,prior_manipulation,know when earthquakes are about to happen,1,"[0, 0, 1, 77, 0, 77, 78, 0, 73, 73, u'?']",10,the progress in the discovery of the in earthquake response seems to have flow,10,listener,rare_strong,psychological,0.01,zorbs,1,english,TRUE
166,124683,prior_manipulation,know when earthquakes are about to happen,1,"[81, 72, 74, 25, 76, 20, 22, 23, 27, 74, u'?']",10,its seems animals fall into the 20% or 70%. So I went with 70% since we had a string of 20% animals,10,listener,weak_or_strong,psychological,0.71,grinks,1,English,TRUE
167,200502,prior_manipulation,know when earthquakes are about to happen,1,"[78, 0, 1, 1, 75, 0, 76, 72, 75, 0, u'?']",10,The animals I&quotecharve studied that actually know when earthquakes are about to happen have 72-78% of the animals knowing. I chose a number in that range.,10,listener,rare_strong,psychological,0.73,feps,1,English,TRUE
168,106352,prior_manipulation,know when earthquakes are about to happen,1,"[21, 1, 27, 25, 1, 0, 24, 2, 1, 25, u'?']",10,Almost every other animal had around a 25% chance of knowing when earthquakes would happen,10,listener,rare_weak,psychological,0.22,moxes,1,English,TRUE
169,102644,prior_manipulation,know when earthquakes are about to happen,1,"[26, 74, 79, 22, 79, 27, 24, 73, 26, 73, u'?']",10,"Pattern shows that after higher level animals, the next in line seems to only score in the 20% range",10,listener,weak_or_strong,psychological,0.28,wugs,1,English,TRUE
170,96210,prior_manipulation,know when earthquakes are about to happen,1,"[23, 51, 52, 51, 51, 24, 49, 24, 26, 28, u'?']",10,"I can&quotechart know the answer to a question like this. So, I split the difference between what I have been told. It is not at all correct.",10,listener,weak_or_half,psychological,0.31,crullets,1,english,TRUE
171,186463,prior_manipulation,know when earthquakes are about to happen,1,"[56, 100, 49, 98, 100, 100, 51, 48, 100, 46, u'?']",10,"Some of the animals were closer to 100 percent than others, but they all seemed to score better than earth creatures (including humans). But by this point in the study, the scientists have encountered animals with at or near a 100 percent rate that earthquakes were about to happen as well as those closer to the 50 percent range. So I doubt a scientist would say an animal (in this case K) would know an earthquake is about to happen unless the animal is somewhere close to 100 percent.",10,listener,half_or_deterministic,psychological,0.9,dobles,1,English,TRUE
172,127333,prior_manipulation,know when earthquakes are about to happen,1,"[26, 74, 29, 74, 76, 25, 27, 30, 77, 75, u'?']",10,No...just gave a guess at it.,10,listener,weak_or_strong,psychological,0.51,krivels,1,English,TRUE
173,109853,prior_manipulation,know when earthquakes are about to happen,1,"[75, 0, 0, 73, 77, 2, 69, 0, 77, 0, u'?']",10,NA,10,listener,rare_strong,psychological,0.62,ludinos,1,English,TRUE
176,78951,prior_manipulation,know when earthquakes are about to happen,1,"[75, 72, 100, 79, 100, 100, 99, 100, 77, 76, u'?']",10,Just assuming they are right about the animal&quotechars ability.,10,listener,strong_or_deterministic,psychological,0.97,luzaks,1,English,TRUE
177,214992,prior_manipulation,know when earthquakes are about to happen,1,"[45, 95, 20, 70, 100, 30, 5, 80, 0, 55, u'?']",10,I can&quotechart I tried following the trend of up and down from A -J but I saw no pattern so I went with K being less than the previous J,10,listener,uniform,psychological,0.35,zoovs,1,english,TRUE
178,94708,prior_manipulation,know when earthquakes are about to happen,1,"[75, 76, 75, 0, 0, 0, 0, 73, 0, 81, u'?']",10,I believe that K was 0% if I remember correctly.,10,listener,rare_strong,psychological,0.01,dunkels,1,English,TRUE
179,60077,prior_manipulation,know when earthquakes are about to happen,1,"[27, 22, 28, 50, 52, 49, 54, 24, 23, 49, u'?']",10,They stated it matter of fact like most of them know when earthquakes are about to happen.,10,listener,weak_or_half,psychological,0.93,dunkels,1,English,TRUE
180,155142,prior_manipulation,know when earthquakes are about to happen,1,"[0, 3, 0, 27, 25, 0, 21, 1, 20, 25, u'?']",10,"Most of the more recent discovered animals had at least a twenty percent ability.  Also, it was a toss up between those which had 0% and those which have 20-27%.",10,listener,rare_weak,psychological,0.2,feps,1,English,TRUE
182,184562,prior_manipulation,know when earthquakes are about to happen,1,"[29, 98, 100, 99, 26, 100, 24, 24, 100, 23, u'?']",10,I felt it was time for that number to come up,10,listener,weak_or_deterministic,psychological,0.98,moxes,1,English,TRUE
183,176887,prior_manipulation,know when earthquakes are about to happen,1,"[75, 74, 75, 74, 1, 0, 75, 1, 0, 0, u'?']",10,"After a series of zero percentage, the likelihood that the next animal would detect earthquakes is higher.",10,listener,rare_strong,psychological,0.75,fendles,1,English,TRUE
184,256640,prior_manipulation,know when earthquakes are about to happen,1,"[55, 46, 100, 98, 49, 100, 49, 47, 100, 99, u'?']",10,I gave this response because even tho I don&quotechart remember the exact percentages I believe this was correct.,10,listener,half_or_deterministic,psychological,0.47,kweps,1,English,TRUE
185,124911,prior_manipulation,know when earthquakes are about to happen,1,"[21, 28, 22, 23, 0, 0, 0, 23, 0, 0, u'?']",10,I average those species that did know earthquakes were going to happen and gave what I think is a average percentage based on those other species.,10,listener,rare_weak,psychological,0.22,luzaks,1,English,TRUE
186,135846,prior_manipulation,know when earthquakes are about to happen,1,"[52, 52, 51, 97, 99, 100, 100, 46, 47, 97, u'?']",10,Lower down the alphabet animals seem to know more,10,listener,half_or_deterministic,psychological,0.65,javs,1,English,TRUE
188,59500,prior_manipulation,know when earthquakes are about to happen,1,"[69, 76, 0, 0, 75, 1, 0, 76, 0, 77, u'?']",10,From the previous results it was shown that this might be the average.,10,listener,rare_strong,psychological,0.75,elleps,1,English,TRUE
189,70172,prior_manipulation,know when earthquakes are about to happen,1,"[25, 28, 73, 75, 74, 73, 25, 75, 27, 28, u'?']",10,The majority of animals on the planet know when an earthquake is about to happen roughly 25% of the time.,10,listener,weak_or_strong,psychological,0.25,elleps,1,English,TRUE
190,134645,prior_manipulation,know when earthquakes are about to happen,1,"[0, 24, 28, 24, 29, 24, 0, 1, 0, 2, u'?']",10,because thats the percentage of some of the other animals,10,listener,rare_weak,psychological,0.24,moxes,1,english,TRUE
191,166778,prior_manipulation,know when earthquakes are about to happen,1,"[100, 24, 100, 24, 98, 27, 100, 27, 25, 100, u'?']",10,It is an mean amount of any animals&quotechar perception.,10,listener,weak_or_deterministic,psychological,0.62,luzaks,1,English Spanish,TRUE
192,209585,prior_manipulation,know when earthquakes are about to happen,1,"[100, 46, 99, 100, 46, 100, 95, 54, 47, 52, u'?']",10,3 of the 10 were 100%. The likelihood of another being 100% is slim.  The majority were around 50%.,10,listener,half_or_deterministic,psychological,0.48,kweps,1,English,TRUE
193,107391,prior_manipulation,know when earthquakes are about to happen,1,"[1, 75, 0, 78, 0, 0, 0, 75, 80, 71, u'?']",10,Most of the animals that could detect earthquakes were that high on the percentage,10,listener,rare_strong,psychological,0.72,lorches,1,English,TRUE
194,60424,prior_manipulation,know when earthquakes are about to happen,1,"[27, 50, 53, 50, 50, 48, 27, 25, 21, 21, u'?']",10,Most animals have an average knowledge of 50% of when the earthquakes are to happen.,10,listener,weak_or_half,psychological,0.5,daiths,1,english,TRUE
196,193890,prior_manipulation,know when earthquakes are about to happen,1,"[27, 47, 49, 51, 29, 19, 51, 27, 25, 52, u'?']",10,The highest percentage of other animals that knew an earthquake was happening was 52% so I figured this animal would not be too much more percentage wise than that.,10,listener,weak_or_half,psychological,0.53,kweps,1,English,TRUE
197,148754,prior_manipulation,know when earthquakes are about to happen,1,"[0, 0, 72, 72, 74, 78, 1, 1, 0, 81, u'?']",10,It seemed logical based on 72 appearing twice.,10,listener,rare_strong,psychological,0.81,fendles,1,english,TRUE
199,474608,prior_manipulation,know when earthquakes are about to happen,1,"[1, 47, 46, 0, 0, 48, 49, 47, 0, 0, u'?']",10,It is usually around this number or zero.  The last two animals were zero so this might be around 47 or 48 percent.,10,listener,rare_half,psychological,0.48,kazzes,1,english,TRUE
200,73599,prior_manipulation,know when earthquakes are about to happen,1,"[97, 99, 50, 100, 51, 100, 52, 50, 100, 51, u'?']",10,most animals had a high prediction rate,10,listener,half_or_deterministic,psychological,0.93,plovs,1,English,TRUE
201,112296,prior_manipulation,know when earthquakes are about to happen,1,"[98, 48, 47, 100, 99, 100, 50, 49, 54, 100, u'?']",10,sees logical in the balance with the other percentages,10,listener,half_or_deterministic,psychological,0.51,kazzes,1,english,TRUE
203,131245,prior_manipulation,know when earthquakes are about to happen,1,"[100, 46, 100, 52, 52, 48, 100, 98, 98, 50, u'?']",10,"A lot of animals on this planet have 100% rates of knowing when earthquakes are about to happen. If my partner says ""they know"" there&quotechars a good chance this is what he means. If he meant ""half of them know"" he would&quotecharve qualified it that way.",10,listener,half_or_deterministic,psychological,1,luzaks,1,English,TRUE
204,199928,prior_manipulation,know when earthquakes are about to happen,1,"[26, 26, 24, 30, 73, 76, 74, 77, 21, 75, u'?']",10,I bet that was noted earlier.,10,listener,weak_or_strong,psychological,0.75,blins,1,English,TRUE
205,457192,prior_manipulation,know when earthquakes are about to happen,1,"[100, 100, 100, 97, 0, 95, 2, 0, 0, 0, u'?']",10,with H I J all having 0 and G having 2 I figure that K would at least be around a 5 and not 0 or a much higher number,10,listener,rare_deterministic,psychological,0.05,trufts,1,English,TRUE
206,160651,prior_manipulation,know when earthquakes are about to happen,1,"[100, 100, 100, 98, 24, 24, 28, 100, 23, 25, u'?']",10,It looks like this might sort of fit the pattern.,10,listener,weak_or_deterministic,psychological,1,zoovs,1,English,TRUE
207,67383,prior_manipulation,know when earthquakes are about to happen,1,"[24, 24, 27, 28, 100, 100, 100, 100, 24, 99, u'?']",10,based on data of which animals knew it has a high chance,10,listener,weak_or_deterministic,psychological,0.97,ackles,1,english,TRUE
208,121578,prior_manipulation,know when earthquakes are about to happen,1,"[100, 99, 77, 77, 97, 98, 100, 78, 74, 73, u'?']",10,I am going by the fluctuation of averages of the previous animals,10,listener,strong_or_deterministic,psychological,0.77,luzaks,1,English,TRUE
209,139690,prior_manipulation,know when earthquakes are about to happen,1,"[76, 24, 26, 28, 73, 74, 74, 73, 28, 22, u'?']",10,Most of the animals we studied only had a roughly 25 percent chance of knowing when Earthquakes would happen. In reality of course we couldn&quotechart actually predict Ks earthquake knowledge because they are separate species.,10,listener,weak_or_strong,psychological,0.24,stups,1,English,TRUE
210,99955,prior_manipulation,know when earthquakes are about to happen,1,"[0, 0, 76, 73, 1, 1, 69, 73, 74, 1, u'?']",10,the range between animals that knew about earthquakes was between 69-80,10,listener,rare_strong,psychological,0.72,blins,1,english,TRUE
211,158862,prior_manipulation,know when earthquakes are about to happen,1,"[100, 100, 29, 100, 30, 24, 22, 100, 23, 100, u'?']",10,I tried to find a pattern with the other animals.,10,listener,weak_or_deterministic,psychological,0.21,stups,1,english,TRUE
212,37357,prior_manipulation,know when earthquakes are about to happen,1,"[79, 75, 99, 78, 98, 98, 74, 98, 100, 75, u'?']",10,NA,10,listener,strong_or_deterministic,psychological,0.54,stups,1,english,TRUE
213,99794,prior_manipulation,know when earthquakes are about to happen,1,"[73, 100, 99, 100, 96, 74, 75, 76, 100, 77, u'?']",10,"The least of them know about 74 percent of the time, so for him to say that all-encompassingly... I feel like nearly all of them should know.",10,listener,strong_or_deterministic,psychological,0.96,taifels,1,english,TRUE
214,466075,prior_manipulation,know when earthquakes are about to happen,1,"[100, 100, 97, 1, 99, 2, 100, 1, 0, 0, u'?']",10,My memory,10,listener,rare_deterministic,psychological,1,blins,1,English,TRUE
215,71853,prior_manipulation,know when earthquakes are about to happen,1,"[95, 0, 100, 20, 5, 70, 55, 80, 30, 45, u'?']",10,"Most of the animals had a high percentage, so I picked a sort of average.",10,listener,uniform,psychological,0.85,ackles,1,English,TRUE
216,163537,prior_manipulation,know when earthquakes are about to happen,1,"[53, 100, 50, 51, 50, 100, 100, 100, 98, 49, u'?']",10,How are we determining that 100% of a species can do something? It sounds like our partner is using some whack sampling methodology. Given the crappyness of our methodology and past results. I&quotechard expect numbers in the 98-100 range.,10,listener,half_or_deterministic,psychological,1,mooks,1,English,TRUE
217,130976,prior_manipulation,know when earthquakes are about to happen,1,"[24, 0, 20, 1, 21, 0, 0, 1, 26, 25, u'?']",10,"because this was around the percentages of other animals that the researchers had decided ""knew"" when earthquakes were about to happen",10,listener,rare_weak,psychological,0.24,elleps,1,english,TRUE
218,83813,prior_manipulation,know when earthquakes are about to happen,1,"[24, 23, 26, 0, 1, 24, 2, 21, 0, 0, u'?']",10,"The highest levels of percentages from the previous data were in the 20 percents, so my guess would be it is somewhere around that.",10,listener,rare_weak,psychological,0.23,morseths,1,english,TRUE
219,142581,prior_manipulation,know when earthquakes are about to happen,1,"[25, 24, 24, 56, 26, 47, 51, 49, 27, 47, u'?']",10,"I think the previous animal, J, had a high percentage so I went lower",10,listener,weak_or_half,psychological,0.25,feps,1,English,TRUE
221,215649,prior_manipulation,know when earthquakes are about to happen,1,"[98, 47, 100, 100, 48, 49, 100, 96, 51, 52, u'?']",10,It seemed most animals knew anywhere from 45% to 100% so I just kind of chose in the middle.,10,listener,half_or_deterministic,psychological,0.72,wugs,1,English,TRUE
222,129026,prior_manipulation,know when earthquakes are about to happen,1,"[0, 49, 1, 0, 48, 0, 48, 49, 0, 51, u'?']",10,Because most of the animals that have been recorded to know when earthquakes are about to happen have either had a success chance of either slightly below or above 50 percent.,10,listener,rare_half,psychological,0.54,ludinos,1,English,TRUE
223,147887,prior_manipulation,know when earthquakes are about to happen,1,"[48, 52, 100, 51, 47, 100, 47, 100, 100, 100, u'?']",10,It is a 50/50 chance that all of one species will %100 know if an earthquake will occur. there streak of 100 percent animals is too great... another animal of 50% is about to be due,10,listener,half_or_deterministic,psychological,0.52,ackles,1,english,TRUE
224,114539,prior_manipulation,know when earthquakes are about to happen,1,"[45, 20, 0, 55, 100, 80, 5, 70, 95, 30, u'?']",10,I&quotecharm not sure how certain my partner is so I wanted to give a high number but not 100%,10,listener,uniform,psychological,0.75,grinks,1,English,TRUE
225,81085,prior_manipulation,know when earthquakes are about to happen,1,"[95, 55, 70, 0, 45, 5, 100, 30, 20, 80, u'?']",10,i gave an average based on previous finds,10,listener,uniform,psychological,0.77,luzaks,1,English,TRUE
226,232962,prior_manipulation,know when earthquakes are about to happen,1,"[100, 96, 52, 50, 49, 97, 51, 100, 53, 95, u'?']",10,Because looking at the trend F was high G was mid H was high I was mid J was high so I thought K would probably be somewhere in the middle.,10,listener,half_or_deterministic,psychological,0.54,reesles,1,English,TRUE
227,277318,prior_manipulation,know when earthquakes are about to happen,1,"[100, 45, 0, 20, 55, 5, 70, 95, 30, 80, u'?']",10,It could have been any percent as the previous examples ranged from 0 to 100%.,10,listener,uniform,psychological,0.5,ludinos,1,English,TRUE
228,228837,prior_manipulation,know when earthquakes are about to happen,1,"[20, 0, 30, 70, 5, 95, 100, 55, 45, 80, u'?']",10,Because of the pattern of the other animals.  The last animal was 80% so the next one would be 20% to make 100%.,10,listener,uniform,psychological,0.2,blins,1,English,TRUE
229,195538,prior_manipulation,know when earthquakes are about to happen,1,"[72, 99, 76, 98, 97, 79, 100, 79, 71, 98, u'?']",10,"The animals all seem to be in the range of about 70% to 100% about knowing when earthquakes are going to happen, I just guessed a number in that range.",10,listener,strong_or_deterministic,psychological,0.78,javs,1,English,TRUE
230,182034,prior_manipulation,know when earthquakes are about to happen,1,"[0, 74, 73, 1, 76, 0, 1, 2, 74, 72, u'?']",10,There seemed to be a pattern within the numbers for which animals knew quakes were coming.,10,listener,rare_strong,psychological,0.71,stups,1,English,TRUE
232,52294,prior_manipulation,know when earthquakes are about to happen,1,"[20, 30, 5, 100, 70, 45, 55, 80, 0, 95, u'?']",10,It has to be at least over 50,10,listener,uniform,psychological,0.63,dorbs,1,English,TRUE
233,201584,prior_manipulation,know when earthquakes are about to happen,1,"[72, 78, 75, 100, 75, 100, 77, 98, 100, 100, u'?']",10,"I feel like a high degree of success in predictions would indicate the ability to sense an upcoming earthquake even if it isn&quotechart 100% of the population. As most of the animals fall in the 70-80% range, I feel that 85% would give a high enough degree of confidence in their abilities.",10,listener,strong_or_deterministic,psychological,0.85,krivels,1,English,TRUE
234,89875,prior_manipulation,know when earthquakes are about to happen,1,"[25, 20, 24, 24, 50, 48, 26, 52, 53, 49, u'?']",10,It seems as though with an exception to G that the percentage was getting higher with new animals.,10,listener,weak_or_half,psychological,0.59,moxes,1,English,TRUE
235,195805,prior_manipulation,know when earthquakes are about to happen,1,"[2, 0, 71, 1, 74, 79, 78, 2, 74, 0, u'?']",10,"The logical conclusion would be that Animal K has a higher rate of knowing when earthquakes are about to happen than the other species do. I would place the probability below 100%, and 95% seems like a good number that represents a majority of the animals of this species.",10,listener,rare_strong,psychological,0.95,luzaks,1,English,TRUE
236,48770,prior_manipulation,know when earthquakes are about to happen,1,"[0, 0, 1, 0, 100, 100, 2, 99, 94, 100, u'?']",10,NA,10,listener,rare_deterministic,psychological,0.49,plovs,1,English,TRUE
237,253611,prior_manipulation,know when earthquakes are about to happen,1,"[48, 51, 28, 50, 23, 30, 47, 23, 21, 48, u'?']",10,The highest percentage of all the other animals was 51 so I think 80% would be a significant jump for him to make that statement.,10,listener,weak_or_half,psychological,0.8,dorbs,1,English,TRUE
238,117151,prior_manipulation,know when earthquakes are about to happen,1,"[24, 1, 0, 23, 28, 1, 26, 0, 1, 25, u'?']",10,"when a large number of the animals are aware, it seems to run about 25%",10,listener,rare_weak,psychological,0.2,blins,1,english,TRUE
239,59869,prior_manipulation,know when earthquakes are about to happen,1,"[49, 50, 44, 27, 25, 27, 23, 51, 51, 25, u'?']",10,"My partner seems certain that this animal is good at doing this, so the rate should be fairly high.",10,listener,weak_or_half,psychological,0.51,crullets,1,English,TRUE
240,201722,prior_manipulation,know when earthquakes are about to happen,1,"[72, 26, 24, 74, 21, 71, 78, 18, 72, 26, u'?']",10,The statement has not qualified the set. 100% of K&quotechars observed know when earthquakes are about to happen.,10,listener,weak_or_strong,psychological,1,ackles,1,English,TRUE
241,123087,prior_manipulation,know when earthquakes are about to happen,1,"[2, 22, 2, 0, 25, 22, 23, 1, 0, 23, u'?']",10,"Of the animals found so far, they either have very low rates of knowledge or are in the 22-25% range.  I am guessing K is going to be similar to the animals with the higher rate of knowledge.",10,listener,rare_weak,psychological,0.25,thups,1,English,TRUE
242,89919,prior_manipulation,know when earthquakes are about to happen,1,"[73, 19, 75, 26, 23, 78, 72, 26, 28, 75, u'?']",10,"they&quotecharre all in the 70s or 20s percentile. if K is presumed to know then it suggests a majority of Ks know, hence I hedged with the larger percentage.",10,listener,weak_or_strong,psychological,0.75,cheebas,1,english,TRUE
244,101138,prior_manipulation,know when earthquakes are about to happen,1,"[0, 53, 0, 0, 51, 1, 54, 0, 53, 46, u'?']",10,Majority of animals do not know when earthquakes are going to happen,10,listener,rare_half,psychological,0,frams,1,English,TRUE
245,130999,prior_manipulation,know when earthquakes are about to happen,1,"[20, 70, 55, 95, 30, 100, 80, 5, 45, 0, u'?']",10,I just felt like that was the minimum percentage in which you could make a definitive statement.,10,listener,uniform,psychological,0.85,crullets,1,English,TRUE
246,112172,prior_manipulation,know when earthquakes are about to happen,1,"[27, 100, 95, 22, 28, 97, 100, 20, 23, 99, u'?']",10,It seemed like more of the animals had a lower percentage of knowing when earthquakes were about to happen.,10,listener,weak_or_deterministic,psychological,0.3,ludinos,1,English,TRUE
247,181180,prior_manipulation,know when earthquakes are about to happen,1,"[24, 19, 54, 53, 51, 26, 52, 30, 22, 50, u'?']",10,If he knows then it needs to be a high number.,10,listener,weak_or_half,psychological,0.94,frams,1,English,TRUE
249,126781,prior_manipulation,know when earthquakes are about to happen,1,"[5, 45, 55, 100, 0, 80, 70, 30, 20, 95, u'?']",10,More animals had less of a percentage of knowing than animals that did.,10,listener,uniform,psychological,0.34,grinks,1,English,TRUE
250,275086,prior_manipulation,know when earthquakes are about to happen,1,"[51, 100, 55, 100, 45, 50, 100, 99, 49, 100, u'?']",10,Repetition pattern. The preliminary presentation presented data which alternated from 100 to closet to 50. I believe 57 to 45 was the range. I am under the assumption the pattern will continue in a similar manner. (Barring the one exception.),10,listener,half_or_deterministic,psychological,0.5,javs,1,English,TRUE
252,36383,prior_manipulation,know when earthquakes are about to happen,1,"[23, 31, 99, 25, 100, 100, 100, 100, 26, 27, u'?']",10,it&quotechars crazy,10,listener,weak_or_deterministic,psychological,0.57,sapers,1,english,TRUE
253,109073,prior_manipulation,know when earthquakes are about to happen,1,"[95, 77, 100, 100, 100, 74, 76, 76, 76, 100, u'?']",10,"All the animals we&quotecharve studied basically can detect earthquakes most of the time. So, if she&quotechars saying it with certainty, we know what certainty means.",10,listener,strong_or_deterministic,psychological,1,thups,1,English,TRUE
254,194062,prior_manipulation,know when earthquakes are about to happen,1,"[27, 78, 75, 28, 23, 23, 26, 75, 77, 76, u'?']",10,"My partner did not quantify, so it seems s/he means that all Ks know when earthquakes are about to happen.",10,listener,weak_or_strong,psychological,1,ackles,1,English,TRUE
255,152818,prior_manipulation,know when earthquakes are about to happen,1,"[76, 76, 77, 1, 73, 1, 0, 0, 0, 76, u'?']",10,It seemed to be approximately what the average would have been.,10,listener,rare_strong,psychological,0.73,crullets,1,english,TRUE
256,133905,prior_manipulation,know when earthquakes are about to happen,1,"[25, 70, 24, 77, 73, 24, 74, 74, 24, 26, u'?']",10,Based on all the other animals that knew when earthquakes are gonna happen the percentages kind of range so I guessed 61%.,10,listener,weak_or_strong,psychological,0.61,zorbs,1,english,TRUE
257,98975,prior_manipulation,know when earthquakes are about to happen,1,"[52, 53, 20, 47, 25, 29, 27, 49, 26, 50, u'?']",10,Just a guess.,10,listener,weak_or_half,psychological,0.55,kazzes,1,english,TRUE
259,84575,prior_manipulation,know when earthquakes are about to happen,1,"[27, 0, 31, 27, 25, 0, 25, 0, 0, 0, u'?']",10,I listened to my partner and guessed based on previous animals.,10,listener,rare_weak,psychological,0.25,crullets,1,english,TRUE
260,140435,prior_manipulation,know when earthquakes are about to happen,1,"[22, 23, 100, 100, 97, 27, 28, 98, 100, 24, u'?']",10,I gave this response because I feel that a high percentage of the animals were around this average.,10,listener,weak_or_deterministic,psychological,0.28,dobles,1,English,TRUE
261,83387,prior_manipulation,know when earthquakes are about to happen,1,"[100, 47, 100, 100, 46, 52, 100, 53, 100, 46, u'?']",10,"They said Ks know when earthquakes are about to happen, not some Ks.",10,listener,half_or_deterministic,psychological,1,daiths,1,English,TRUE
262,95629,prior_manipulation,know when earthquakes are about to happen,1,"[74, 0, 72, 1, 0, 71, 1, 76, 0, 76, u'?']",10,Its a pattern.,10,listener,rare_strong,psychological,0.66,ackles,1,English,TRUE
264,74310,prior_manipulation,know when earthquakes are about to happen,1,"[97, 100, 93, 69, 100, 77, 75, 77, 99, 76, u'?']",10,These animals have been pretty high scoring on knowing when earthquakes are going to happen. I just chose the average.,10,listener,strong_or_deterministic,psychological,0.82,thups,1,English,TRUE
265,125067,prior_manipulation,know when earthquakes are about to happen,1,"[53, 50, 100, 100, 56, 100, 100, 45, 51, 99, u'?']",10,Because the partner said the animal knows when earthquakes are about to happen.  Not the animal knows when earthquakes are about to happen most of the time or half of the time.,10,listener,half_or_deterministic,psychological,1,ollers,1,English,TRUE
266,257867,prior_manipulation,know when earthquakes are about to happen,1,"[25, 28, 99, 99, 99, 26, 25, 100, 29, 100, u'?']",10,"It seems either 1/4 of the animals knew or just under 100% of the animals know. There were more 99s than 100s though. So I&quotechard think that if they&quotecharre saying Ks do know, that means more of them than not. So since it seems they&quotechard fall into the 99/100 group and since 99 is more common, I went with that.",10,listener,weak_or_deterministic,psychological,0.99,mooks,1,English,TRUE
267,200845,prior_manipulation,know when earthquakes are about to happen,1,"[27, 100, 100, 99, 100, 24, 22, 21, 100, 27, u'?']",10,"Because, K&quotechar is a letter that&quotechars in the middle, so the animals may not be at either extreme like beginning or end, but in the middle.",10,listener,weak_or_deterministic,psychological,0.33,ludinos,1,English,TRUE
268,217695,prior_manipulation,know when earthquakes are about to happen,1,"[50, 26, 26, 48, 52, 49, 27, 20, 26, 47, u'?']",10,I just thought it would be a higher percentage than Animal J&quotechars,10,listener,weak_or_half,psychological,0.51,grinks,1,English,TRUE
269,286409,prior_manipulation,know when earthquakes are about to happen,1,"[28, 24, 77, 74, 26, 78, 72, 27, 30, 70, u'?']",10,My partner seems to be pretty sure that the animal knows when earthquakes are about to happen,10,listener,weak_or_strong,psychological,0.8,krivels,1,English,TRUE
271,133457,prior_manipulation,know when earthquakes are about to happen,1,"[23, 26, 100, 99, 100, 100, 27, 22, 25, 99, u'?']",10,"Because it&quotechars almost 100% which is close to the ones that were at 100%, so I assume the partner believes it is so strong in  Ks as to be able to say they know.",10,listener,weak_or_deterministic,psychological,0.98,javs,1,English,TRUE
272,138303,prior_manipulation,know when earthquakes are about to happen,1,"[100, 25, 100, 99, 100, 27, 26, 96, 25, 29, u'?']",10,The pattern of numbers,10,listener,weak_or_deterministic,psychological,0.99,ollers,1,English,TRUE
273,101667,prior_manipulation,know when earthquakes are about to happen,1,"[0, 26, 1, 29, 1, 21, 25, 0, 0, 26, u'?']",10,doubt any animal would get it right all the time but compared to the others this would be very statistically relevant and profound,10,listener,rare_weak,psychological,0.75,dobles,1,english,TRUE
274,301040,prior_manipulation,know when earthquakes are about to happen,1,"[80, 20, 55, 30, 70, 95, 0, 45, 100, 5, u'?']",10,"It seems that the rate among most of the consonant animals are in the mid range, while the vowel animals are a higher rate.",10,listener,uniform,psychological,0.55,fendles,1,English,TRUE
275,174074,prior_manipulation,know when earthquakes are about to happen,1,"[32, 23, 28, 100, 21, 100, 25, 98, 100, 99, u'?']",10,just a guess to be honest,10,listener,weak_or_deterministic,psychological,0.91,wugs,1,english,TRUE
276,336069,prior_manipulation,know when earthquakes are about to happen,1,"[97, 99, 74, 73, 76, 99, 100, 79, 97, 75, u'?']",10,"Only three letters out of the several that I previously saw had values in the 90s, or one with 100. Most of the animals depicted had percentages in the 70s with respect to knowing when earthquakes were about to happen. Thus, I chose a value in the high 70s for Animal K.",10,listener,strong_or_deterministic,psychological,0.78,ludinos,1,English,TRUE
277,206329,prior_manipulation,know when earthquakes are about to happen,1,"[100, 95, 70, 45, 30, 20, 80, 5, 55, 0, u'?']",10,"it seemed random after F, going back up to a larger percentage for G then lower",10,listener,uniform,psychological,0.5,glippets,1,english,TRUE
278,181102,prior_manipulation,know when earthquakes are about to happen,1,"[22, 100, 99, 98, 27, 27, 100, 27, 27, 96, u'?']",10,It seems as though most of the animals know when an earthquake is going to occur and they are closer to 100%.,10,listener,weak_or_deterministic,psychological,0.95,ollers,1,English,TRUE
279,151398,prior_manipulation,know when earthquakes are about to happen,1,"[20, 45, 0, 30, 100, 55, 5, 70, 80, 95, u'?']",10,H I J had a high percentage so I thought K might have a slightly high percentage as well,10,listener,uniform,psychological,0.65,glippets,1,English,TRUE
280,66894,prior_manipulation,know when earthquakes are about to happen,1,"[24, 51, 23, 22, 49, 50, 25, 48, 25, 51, u'?']",10,Medium probability based off of the average so far,10,listener,weak_or_half,psychological,0.36,blins,1,english,TRUE
281,108445,prior_manipulation,know when earthquakes are about to happen,1,"[100, 100, 48, 96, 51, 99, 49, 52, 52, 100, u'?']",10,"Looking at the most common percentage, excluding 100%",10,listener,half_or_deterministic,psychological,0.52,elleps,1,English,TRUE
283,123458,prior_manipulation,know when earthquakes are about to happen,1,"[27, 25, 51, 50, 24, 24, 51, 24, 47, 51, u'?']",10,Seems that most of the animals are either at about 25% or 50%.  25% seemed to be the most likely area for the percent of animals in this case.,10,listener,weak_or_half,psychological,0.27,glippets,1,English,TRUE
284,220874,prior_manipulation,know when earthquakes are about to happen,1,"[52, 24, 21, 50, 28, 47, 47, 25, 50, 28, u'?']",10,fits into the other numbers,10,listener,weak_or_half,psychological,0.33,luzaks,1,English,TRUE
285,95232,prior_manipulation,know when earthquakes are about to happen,1,"[98, 99, 99, 53, 46, 48, 100, 52, 95, 45, u'?']",10,I remember the trend I think,10,listener,half_or_deterministic,psychological,0.57,thups,1,English,TRUE
287,178774,prior_manipulation,know when earthquakes are about to happen,1,"[100, 25, 100, 26, 98, 25, 100, 100, 23, 29, u'?']",10,it seems like either the animals have 100% chance (or close) of knowing if an earthquake is going to happen or they have a 25-30% chance of knowing. So I took a guess that Ks were 100%,10,listener,weak_or_deterministic,psychological,1,zorbs,1,English,TRUE
288,221195,prior_manipulation,know when earthquakes are about to happen,1,"[100, 95, 20, 70, 55, 30, 45, 5, 80, 0, u'?']",10,"The percentages differ drastically between animals, I could not identify a particular pattern so this is a random guess. I had second thoughts and tried to change my answer to 100% because the last animal was 0%, and the first animal was 100%, so maybe the pattern started itself over.",10,listener,uniform,psychological,0.2,crullets,1,English,TRUE
289,101758,prior_manipulation,know when earthquakes are about to happen,1,"[76, 1, 76, 75, 76, 0, 0, 72, 0, 0, u'?']",10,NA,10,listener,rare_strong,psychological,0.76,dunkels,1,English,TRUE
290,106319,prior_manipulation,know when earthquakes are about to happen,1,"[99, 98, 50, 52, 98, 53, 49, 100, 47, 100, u'?']",10,Because my partner did not qualify the statement. It was implied that ALL Ks can predict earthquakes.,10,listener,half_or_deterministic,psychological,0.99,luzaks,1,English,TRUE
291,175357,prior_manipulation,know when earthquakes are about to happen,1,"[100, 79, 100, 75, 74, 100, 100, 78, 100, 73, u'?']",10,"based on information given, I remember A, C, F, G and I all know 100% of the time when earthquakes are about to happen.",10,listener,strong_or_deterministic,psychological,0.74,kweps,1,english,TRUE
292,195511,prior_manipulation,know when earthquakes are about to happen,1,"[0, 25, 2, 18, 0, 23, 0, 25, 0, 23, u'?']",10,"There seems to be a near alternating pattern of whether the next discovered animal can detect earthquakes or not, with the sweet spot being right around 25%.",10,listener,rare_weak,psychological,0.23,luzaks,1,English,TRUE
293,221109,prior_manipulation,know when earthquakes are about to happen,1,"[52, 0, 0, 0, 51, 53, 47, 0, 1, 50, u'?']",10,"I gave 52% because this seems more likely, given that none of the animals mentioned previously that can predict earthquakes were of very high percentage. So when partner tells me that another animal K knows when earthquakes are about to happen, it&quotechars logical to presume that not all animal Ks know, but just a good amount.",10,listener,rare_half,psychological,0.52,taifels,1,English,TRUE
294,257995,prior_manipulation,know when earthquakes are about to happen,1,"[0, 0, 2, 1, 100, 100, 95, 100, 0, 100, u'?']",10,"Because my partner phrased it, said ""Ks know when earthquakes are about to happen"", not ""some of or a percentage of Ks know when earthquakes are about to happen.""",10,listener,rare_deterministic,psychological,1,luzaks,1,English,TRUE
295,182550,prior_manipulation,know when earthquakes are about to happen,1,"[0, 0, 0, 23, 23, 27, 26, 24, 0, 1, u'?']",10,"Most of the animals that could predict eartquakes fell within the 20 percentille. So it makes sense for this animal to fall there but maybe a little more, since the other scientist said with certanity that they knew it..",10,listener,rare_weak,psychological,0.28,dobles,1,English,TRUE
296,99326,prior_manipulation,know when earthquakes are about to happen,1,"[100, 100, 100, 99, 97, 78, 72, 78, 78, 77, u'?']",10,it doesnt seem likely that they all will know  but it seems like a large majority would,10,listener,strong_or_deterministic,psychological,0.88,ludinos,1,english,TRUE
297,114308,prior_manipulation,know when earthquakes are about to happen,1,"[19, 99, 22, 25, 100, 99, 98, 100, 26, 29, u'?']",10,"Just a guess really. Without any other information, it is all I could do.",10,listener,weak_or_deterministic,psychological,0.9,wugs,1,English,TRUE
298,187118,prior_manipulation,know when earthquakes are about to happen,1,"[45, 50, 100, 100, 98, 53, 100, 53, 51, 100, u'?']",10,I just thought of 65,10,listener,half_or_deterministic,psychological,0.6,moxes,1,English,TRUE
299,52554,prior_manipulation,know when earthquakes are about to happen,1,"[50, 50, 100, 55, 100, 46, 97, 100, 98, 52, u'?']",10,seems like a median,10,listener,half_or_deterministic,psychological,0.6,dunkels,1,English,TRUE
300,74283,prior_manipulation,know when earthquakes are about to happen,1,"[99, 24, 23, 22, 27, 98, 100, 26, 100, 99, u'?']",10,The animals before were either really high or in the 20% range so I just picked in the 20%,10,listener,weak_or_deterministic,psychological,0.27,stups,1,English,TRUE
301,384471,prior_manipulation,know when earthquakes are about to happen,1,"[75, 0, 76, 0, 2, 74, 2, 1, 75, 74, u'?']",10,"In most of the animals who know when earthquakes are going to happen, about 74-76% have the ability.",10,listener,rare_strong,psychological,0.75,reesles,1,English,TRUE
303,139481,prior_manipulation,know when earthquakes are about to happen,1,"[0, 23, 0, 22, 0, 0, 22, 0, 22, 21, u'?']",10,pattern,10,listener,rare_weak,psychological,0.03,dorbs,1,english,TRUE
305,177153,prior_manipulation,know when earthquakes are about to happen,1,"[26, 55, 28, 52, 46, 24, 25, 54, 45, 25, u'?']",10,I figure there is a 50/50 chance they Ks may or may not know when earthquakes occur.,10,listener,weak_or_half,psychological,0.5,dobles,1,English,TRUE
306,97812,prior_manipulation,know when earthquakes are about to happen,1,"[53, 54, 1, 1, 1, 0, 52, 52, 0, 49, u'?']",10,It&quotechars just a random guess,10,listener,rare_half,psychological,0.42,dobles,1,English,TRUE
307,105186,prior_manipulation,know when earthquakes are about to happen,1,"[1, 0, 97, 0, 100, 97, 100, 1, 97, 0, u'?']",10,Very few animals have a high score,10,listener,rare_deterministic,psychological,0.1,grinks,1,English,TRUE
308,165281,prior_manipulation,know when earthquakes are about to happen,1,"[50, 100, 100, 49, 54, 51, 53, 100, 100, 100, u'?']",10,"the first ten animals had either @a 50% chance of knowing, or a 100% chance of knowing, when an earthquake would hit",10,listener,half_or_deterministic,psychological,0.5,dorbs,1,English,TRUE
309,170904,prior_manipulation,know when earthquakes are about to happen,1,"[0, 27, 0, 26, 0, 27, 0, 26, 0, 25, u'?']",10,Based on the pattern that its 0% on all the letters that fall on the odd numbers of the alphabet,10,listener,rare_weak,psychological,0,feps,1,English,TRUE
310,118065,prior_manipulation,know when earthquakes are about to happen,1,"[22, 100, 22, 24, 100, 21, 100, 100, 100, 24, u'?']",10,If my partner says they know when earthquakes are going to happen then that is a higher percentage than ones that might know.,10,listener,weak_or_deterministic,psychological,0.8,krivels,1,english,TRUE
311,63885,prior_manipulation,know when earthquakes are about to happen,1,"[97, 47, 100, 100, 99, 55, 46, 54, 51, 100, u'?']",10,most of the others had high numbers,10,listener,half_or_deterministic,psychological,0.93,daiths,1,english,TRUE
312,366058,prior_manipulation,know when earthquakes are about to happen,1,"[74, 72, 1, 75, 77, 0, 0, 72, 0, 2, u'?']",10,Picked it to be same as prior letter,10,listener,rare_strong,psychological,0.02,crullets,1,English,TRUE
314,279429,prior_manipulation,know when earthquakes are about to happen,1,"[2, 75, 2, 74, 76, 0, 0, 1, 74, 78, u'?']",10,My partner sounded definitive by saying K&quotechars KNOW when earthquakes are about to happen.,10,listener,rare_strong,psychological,0.81,stups,1,English,TRUE
315,135673,prior_manipulation,know when earthquakes are about to happen,1,"[27, 79, 75, 21, 76, 77, 26, 76, 24, 25, u'?']",10,I thought the average would go up from the last animal. The last animal tested only had a 25% chance of knowing when an earthquake will occur.,10,listener,weak_or_strong,psychological,0.56,cheebas,1,English,TRUE
316,126620,prior_manipulation,know when earthquakes are about to happen,1,"[100, 23, 99, 100, 32, 100, 100, 26, 26, 31, u'?']",10,Its just a guess based on the flow chart in the prior example,10,listener,weak_or_deterministic,psychological,0.29,kweps,1,english,TRUE
317,301095,prior_manipulation,know when earthquakes are about to happen,1,"[75, 99, 100, 75, 100, 75, 75, 99, 99, 75, u'?']",10,"75% was the most common percentage, so I thought it was the most likely response.",10,listener,strong_or_deterministic,psychological,0.75,sapers,1,english,TRUE
318,181745,prior_manipulation,know when earthquakes are about to happen,1,"[99, 50, 50, 94, 46, 46, 100, 99, 48, 100, u'?']",10,"Because that seems to be about in the middle. Only a few types know 99 or 100 that earthquakes are about to happen, and there have been a few revealed already.",10,listener,half_or_deterministic,psychological,0.5,ludinos,1,English,TRUE
319,78845,prior_manipulation,know when earthquakes are about to happen,1,"[55, 30, 80, 0, 20, 45, 70, 5, 95, 100, u'?']",10,There isn&quotechart any way I can tell to determine this number so I chose a percentage at random,10,listener,uniform,psychological,0.78,mooks,1,english,TRUE
320,130043,prior_manipulation,know when earthquakes are about to happen,1,"[100, 25, 30, 100, 100, 99, 31, 23, 25, 98, u'?']",10,It seems to me that all of the animals listed before that were able to accurately tell when earthquakes would occur all had a high percentage chance. All of the numbers that were high seemed very high.,10,listener,weak_or_deterministic,psychological,0.9,fendles,1,english,TRUE
321,148297,prior_manipulation,know when earthquakes are about to happen,1,"[5, 0, 30, 45, 100, 55, 95, 70, 80, 20, u'?']",10,"I really can&quotechart discern a pattern from the previous example.  My guess is somewhat based on the average of all the animals combined.  I did not do a proper calculation, it is simply that I feel 15% is about average.",10,listener,uniform,psychological,0.15,dorbs,1,English,TRUE
322,81675,prior_manipulation,know when earthquakes are about to happen,1,"[52, 52, 52, 51, 0, 0, 48, 0, 0, 0, u'?']",10,Because the percentage decreased by 1 point as it went down the line for animals which could predict.,10,listener,rare_half,psychological,0.5,wugs,1,english,TRUE
323,124076,prior_manipulation,know when earthquakes are about to happen,1,"[20, 70, 100, 95, 45, 0, 55, 30, 80, 5, u'?']",10,I couldn&quotechart figure any pattern so I tried to slide the bar to fifty percent but it got drunk on fifty two,10,listener,uniform,psychological,0.52,morseths,1,english,TRUE
324,72818,prior_manipulation,know when earthquakes are about to happen,1,"[23, 100, 28, 98, 25, 99, 26, 26, 100, 100, u'?']",10,There is no reason to doubt that this new animal knows when earthquakes will happen.,10,listener,weak_or_deterministic,psychological,0.93,glippets,1,English,TRUE
325,118845,prior_manipulation,know when earthquakes are about to happen,1,"[100, 100, 73, 99, 97, 78, 74, 79, 71, 100, u'?']",10,"The range of earthquake prediction we&quotecharve observed so far has been between 70-100%.  If my partner says ""Ks know,"" in absolute terms, I would expect that to mean they know better than most other animals on the planet, so it would be close to 100%.",10,listener,strong_or_deterministic,psychological,0.94,crullets,1,English,TRUE
328,146966,prior_manipulation,know when earthquakes are about to happen,1,"[27, 50, 49, 24, 54, 27, 25, 48, 26, 50, u'?']",10,"Just a quess, all of the animals are around 25 or 50 percent",10,listener,weak_or_half,psychological,0.49,ollers,1,English,TRUE
329,176498,prior_manipulation,know when earthquakes are about to happen,1,"[27, 26, 24, 27, 53, 48, 48, 26, 48, 48, u'?']",10,There seems to be a pattern with the newly discovered animals,10,listener,weak_or_half,psychological,0.25,reesles,1,English,TRUE
330,113902,prior_manipulation,know when earthquakes are about to happen,1,"[24, 26, 74, 76, 29, 74, 24, 26, 74, 76, u'?']",10,More lower percentage species seem to be present.,10,listener,weak_or_strong,psychological,0.29,crullets,1,English,TRUE
331,192794,prior_manipulation,know when earthquakes are about to happen,1,"[26, 100, 99, 28, 100, 100, 26, 26, 100, 24, u'?']",10,"If they  know, they must know all the time, otherwise they MIGHT know when earthquakes are about to happen.",10,listener,weak_or_deterministic,psychological,0.99,cheebas,1,English,TRUE
332,234679,prior_manipulation,know when earthquakes are about to happen,1,"[100, 100, 100, 100, 54, 53, 51, 44, 50, 97, u'?']",10,Just hypothetically believe that k would somewhat be close to I,10,listener,half_or_deterministic,psychological,0.53,wugs,1,English,TRUE
333,57556,prior_manipulation,know when earthquakes are about to happen,1,"[23, 22, 100, 100, 100, 100, 18, 100, 26, 30, u'?']",10,NA,10,listener,weak_or_deterministic,psychological,0.75,dobles,1,English,TRUE
334,170912,prior_manipulation,know when earthquakes are about to happen,1,"[73, 1, 76, 2, 1, 75, 80, 3, 0, 72, u'?']",10,Yesterday those who could know when earthquakes were about to happen only were in the range of 70-80. So based off of yesterdays information I believe that only 73% of Ks know when earthquakes are about to happen.,10,listener,rare_strong,psychological,0.73,daiths,1,English,TRUE
335,215823,prior_manipulation,know when earthquakes are about to happen,1,"[73, 30, 28, 77, 23, 77, 72, 26, 25, 76, u'?']",10,I looked at the pattern of previous observations...it seemed like time for a value in the 70&quotechars to continue the pattern.,10,listener,weak_or_strong,psychological,0.79,morseths,1,english,TRUE
336,96036,prior_manipulation,know when earthquakes are about to happen,1,"[0, 2, 72, 75, 77, 1, 0, 76, 0, 73, u'?']",10,"I know either I/J/ or K was 0% able to identify earthquakes
",10,listener,rare_strong,psychological,0,lorches,1,English,TRUE
337,180104,prior_manipulation,know when earthquakes are about to happen,1,"[1, 2, 74, 79, 0, 74, 0, 73, 0, 74, u'?']",10,"With the exception of animals A B E G and I, it seems as if the others can predict earthquakes an average of 75% of the time.",10,listener,rare_strong,psychological,0.72,lorches,1,English,TRUE
338,150012,prior_manipulation,know when earthquakes are about to happen,1,"[99, 49, 100, 49, 98, 48, 46, 100, 53, 97, u'?']",10,Everytime a high number was given a low number followed,10,listener,half_or_deterministic,psychological,0.47,feps,1,English,TRUE
340,803171,prior_manipulation,know when earthquakes are about to happen,1,"[0, 1, 75, 1, 75, 75, 0, 76, 77, 2, u'?']",10,"It seems that as more animals are discovered, the number of the newly discovered animals that can detect earthquakes increases. This phenomenon could be due to the nature of the animal that can detect more earthquakes. Maybe those animals like darker and more hidden places to nest. That would tend to make those animals more difficult to find.",10,listener,rare_strong,psychological,0.78,kazzes,1,English,TRUE
341,231000,prior_manipulation,know when earthquakes are about to happen,1,"[0, 47, 50, 1, 54, 2, 0, 48, 0, 50, u'?']",10,it seems like more of the animals had only a little bit of earthquake reaction,10,listener,rare_half,psychological,0.03,ollers,1,English,TRUE
342,175254,prior_manipulation,know when earthquakes are about to happen,1,"[96, 1, 100, 0, 100, 100, 100, 0, 0, 1, u'?']",10,It seems as though that more animals know 100%.,10,listener,rare_deterministic,psychological,0.99,fendles,1,english,TRUE
343,131018,prior_manipulation,know when earthquakes are about to happen,1,"[23, 0, 0, 28, 0, 25, 0, 24, 0, 27, u'?']",10,"I don&quotechart remember the exact percentage for Ks, but I don&quotechart believe any of the animals really know when earthquakes will happen if only 27 percent max of the most likely species can tell. Those percentages make it seem more like chance and luck than anything else.",10,listener,rare_weak,psychological,0,zoovs,1,English,TRUE
344,156434,prior_manipulation,know when earthquakes are about to happen,1,"[23, 1, 26, 24, 26, 0, 26, 1, 0, 1, u'?']",10,"It was the use of the term ""know"".  It wasn&quotechart that they sense, some know, or may know, it was K&quotechars KNOW.",10,listener,rare_weak,psychological,0.98,wugs,1,English,TRUE
345,270635,prior_manipulation,know when earthquakes are about to happen,1,"[80, 77, 20, 74, 76, 75, 25, 25, 22, 23, u'?']",10,"As a scientist, he is stating a fact and not a hypothesis.  If it&quotechars a fact, he has studied the species enough to know that 100% of the Ks know when an earthquake is about to happen.  He did not pose this as a question, or imply that he has discovered a K that can predict earthquakes; he has stated that they definitively know an earthquake will happen.",10,listener,weak_or_strong,psychological,1,thups,1,English,TRUE
346,158551,prior_manipulation,know when earthquakes are about to happen,1,"[30, 25, 27, 23, 0, 26, 0, 0, 0, 0, u'?']",10,Because it seems like about an average for the animals that do know when earthquakes are about to happen.,10,listener,rare_weak,psychological,0.22,fendles,1,english,TRUE
349,261665,prior_manipulation,know when earthquakes are about to happen,1,"[74, 98, 100, 76, 100, 100, 79, 100, 78, 78, u'?']",10,Because if the other letters would have known it would of happen already.,10,listener,strong_or_deterministic,psychological,0.8,dorbs,1,English,TRUE
350,663052,prior_manipulation,know when earthquakes are about to happen,1,"[22, 23, 1, 23, 25, 23, 0, 0, 1, 0, u'?']",10,because that seemed like the most likely possibility with similar percents to the other animals,10,listener,rare_weak,psychological,0.23,daiths,1,english,TRUE
351,167662,prior_manipulation,know when earthquakes are about to happen,1,"[50, 52, 0, 0, 0, 51, 50, 49, 0, 0, u'?']",10,"I&quotecharm assuming my partner knows whether a species can detect earthquakes at all, so all the 0%s are out, and all the other species that could detect them were around 50%, so i&quotechard assume this species si about the same.",10,listener,rare_half,psychological,0.5,daiths,1,english,TRUE
352,159724,prior_manipulation,know when earthquakes are about to happen,1,"[50, 53, 25, 26, 48, 27, 45, 26, 25, 48, u'?']",10,The animals percentage changes a lot. I tried going somewhere in the middle.,10,listener,weak_or_half,psychological,0.29,dobles,1,English,TRUE
354,214614,prior_manipulation,know when earthquakes are about to happen,1,"[48, 2, 53, 50, 0, 2, 53, 0, 45, 3, u'?']",10,"so far all of the animals have been 0-5% knowing or 45-55% knowing, so the two categories would be basically not knowing and half-chance of knowing. it would be easy to just say they know to mean they are among the ones that have a half-chance of knowing.",10,listener,rare_half,psychological,0.5,kweps,1,english,TRUE
355,206081,prior_manipulation,know when earthquakes are about to happen,1,"[45, 100, 0, 95, 70, 30, 55, 80, 5, 20, u'?']",10,If Ks know when earthquakes are about to happen then it is 100%.,10,listener,uniform,psychological,1,trufts,1,English,TRUE
356,98373,prior_manipulation,know when earthquakes are about to happen,1,"[54, 0, 2, 52, 1, 0, 47, 45, 0, 45, u'?']",10,NA,10,listener,rare_half,psychological,0.04,zorbs,1,English,TRUE
357,207478,prior_manipulation,know when earthquakes are about to happen,1,"[75, 100, 75, 79, 75, 98, 100, 99, 77, 100, u'?']",10,"Majority of animals were in the 70%-80% range of knowing when an Earthquake was going to happen so intuitively, about 75% just felt right.",10,listener,strong_or_deterministic,psychological,0.75,ollers,1,English,TRUE
358,810468,prior_manipulation,know when earthquakes are about to happen,1,"[78, 0, 75, 75, 76, 0, 0, 0, 77, 0, u'?']",10,"The odds that he would be able to determine that 100% of Ks know when earthquakes are about to happen would seem to be below 100%, even if 100% of Ks actually did know when earthquakes would happen.  The other animals that could (to some degree) know when earthquakes are about to happen were around 75%, so that seemed like a reasonable guess.",10,listener,rare_strong,psychological,0.75,trufts,1,English,TRUE
360,178358,prior_manipulation,know when earthquakes are about to happen,1,"[27, 0, 0, 19, 1, 26, 1, 23, 25, 1, u'?']",10,I was not given a percentage and based on the wording of my partner it seems like all Ks know when earthquakes are about to happen.,10,listener,rare_weak,psychological,1,zoovs,1,English,TRUE
361,335985,prior_manipulation,know when earthquakes are about to happen,1,"[1, 0, 2, 74, 0, 77, 70, 0, 77, 74, u'?']",10,"Of the animals that had already been studied, if the majority knew when earthquakes were going to happen, it was usually in a 70-something % that knew. I think this animal will probably be like the others.

There were a few that had a tiny percentage knowing, but I think this animal is more likely to be like the ones with a high percentage knowing.",10,listener,rare_strong,psychological,0.75,javs,1,English,TRUE
362,64402,prior_manipulation,know when earthquakes are about to happen,1,"[98, 0, 100, 100, 0, 100, 97, 0, 0, 0, u'?']",10,"Either they do or they don&quotechart, the results indicate.",10,listener,rare_deterministic,psychological,0.98,lorches,1,English,TRUE
363,35358,prior_manipulation,know when earthquakes are about to happen,1,"[1, 0, 49, 0, 1, 54, 0, 50, 51, 44, u'?']",10,its been a while since there was a 0%,10,listener,rare_half,psychological,0,dobles,1,english,TRUE
364,79205,prior_manipulation,know when earthquakes are about to happen,1,"[24, 29, 2, 19, 0, 22, 0, 1, 23, 2, u'?']",10,I seemed like a good average of the given data.,10,listener,rare_weak,psychological,0.15,morseths,1,English,TRUE
365,186382,prior_manipulation,know when earthquakes are about to happen,1,"[0, 1, 0, 72, 76, 78, 0, 76, 78, 0, u'?']",10,The person seems pretty sure that Ks know for sure that they are going to take place,10,listener,rare_strong,psychological,0.85,crullets,1,English,TRUE
367,89422,prior_manipulation,know when earthquakes are about to happen,1,"[27, 0, 0, 0, 0, 23, 23, 0, 30, 28, u'?']",10,That is about the average for the animals that knew when earthquakes are about to happen.,10,listener,rare_weak,psychological,0.27,ludinos,1,English,TRUE
368,96650,prior_manipulation,know when earthquakes are about to happen,1,"[5, 95, 100, 30, 80, 20, 70, 0, 55, 45, u'?']",10,"I guessed, as I was not expecting to need to look for a trend in the given data.",10,listener,uniform,psychological,0.5,stups,1,English,TRUE
369,197856,prior_manipulation,know when earthquakes are about to happen,1,"[0, 0, 100, 0, 100, 100, 1, 2, 100, 98, u'?']",10,other animals already are at 100% so partner wouldn&quotechart say definitively unless they were also 100% since that is already a realistic ability,10,listener,rare_deterministic,psychological,1,wugs,1,English,TRUE
370,152250,prior_manipulation,know when earthquakes are about to happen,1,"[53, 22, 25, 49, 24, 56, 25, 52, 51, 24, u'?']",10,"He doesn&quotechart say ""Some K&quotechars know"" which implies that they are more likely than not (greater than 50% chance).",10,listener,weak_or_half,psychological,0.56,zoovs,1,English,TRUE
371,178396,prior_manipulation,know when earthquakes are about to happen,1,"[76, 74, 100, 96, 73, 100, 100, 77, 80, 100, u'?']",10,Couldnt slide to one hundred but if they know when earthquakes are about to happen he is implying all of them. He would have said some if it was not all,10,listener,strong_or_deterministic,psychological,0.99,cheebas,1,English,TRUE
372,143150,prior_manipulation,know when earthquakes are about to happen,1,"[99, 49, 54, 99, 51, 100, 99, 49, 99, 50, u'?']",10,NA,10,listener,half_or_deterministic,psychological,0.49,cheebas,1,English,TRUE
373,87573,prior_manipulation,know when earthquakes are about to happen,1,"[0, 100, 1, 100, 99, 0, 99, 0, 0, 98, u'?']",10,Alternating.,10,listener,rare_deterministic,psychological,0.06,feps,1,english,TRUE
374,155166,prior_manipulation,know when earthquakes are about to happen,1,"[76, 80, 100, 96, 100, 100, 80, 77, 77, 98, u'?']",10,"So far, all of the animals we have discovered know when earthquakes are about to happen 76% of the time or more. 80% seemed like a good average to guess.",10,listener,strong_or_deterministic,psychological,0.8,crullets,1,English,TRUE
375,108459,prior_manipulation,know when earthquakes are about to happen,1,"[0, 75, 0, 78, 74, 0, 74, 1, 76, 0, u'?']",10,"We are scientists and speak in precise terms, so my partner means 100%.",10,listener,rare_strong,psychological,1,wugs,1,English,TRUE
377,234689,prior_manipulation,know when earthquakes are about to happen,1,"[22, 21, 72, 76, 22, 75, 74, 76, 28, 27, u'?']",10,Based on the averages of the previous animals.,10,listener,weak_or_strong,psychological,0.22,crullets,1,English,TRUE
378,71698,prior_manipulation,know when earthquakes are about to happen,1,"[100, 99, 75, 100, 72, 100, 75, 100, 75, 78, u'?']",10,Nope just a guess,10,listener,strong_or_deterministic,psychological,0.75,fendles,1,English,TRUE
379,121950,prior_manipulation,know when earthquakes are about to happen,1,"[48, 52, 46, 48, 49, 2, 0, 0, 2, 2, u'?']",10,The more animals were found the less likely their ability to sense earthquakes became.,10,listener,rare_half,psychological,0.01,stups,1,English,TRUE
380,286379,prior_manipulation,know when earthquakes are about to happen,1,"[52, 49, 27, 24, 48, 21, 52, 25, 24, 49, u'?']",10,"There were some that had a higher percentage and others that had low, so since there were more low percentages I picked somewhat in the middle between the highest and lowest percentages.",10,listener,weak_or_half,psychological,0.33,feps,1,English,TRUE
382,136736,prior_manipulation,know when earthquakes are about to happen,1,"[72, 78, 29, 73, 71, 75, 23, 28, 27, 26, u'?']",10,Around that number is what seems to be trending.,10,listener,weak_or_strong,psychological,0.29,ackles,1,English,TRUE
