workerid,rt,trial_type,property,trial_num,experimentResults,missing,explanation,n_data,condition,distribution,property_type,response,category,pass_both,language,englishNative
0,55603,prior_manipulation,know when earthquakes are about to happen,1,"[0, 0, 0, 0, 26, 0, 24, 24, 23, 26, u'?']",10,Every animal named later in the alphabet seemed to be around 26%,10,prior,rare_weak,psychological,0.21,K,1,english,TRUE
0,55603,prior_manipulation,know when earthquakes are about to happen,1,"[0, 0, 0, 0, 26, 0, 24, 24, 23, 26, u'?']",10,Every animal named later in the alphabet seemed to be around 26%,10,prior,rare_weak,psychological,0.21,L,1,english,TRUE
0,55603,prior_manipulation,know when earthquakes are about to happen,1,"[0, 0, 0, 0, 26, 0, 24, 24, 23, 26, u'?']",10,Every animal named later in the alphabet seemed to be around 26%,10,prior,rare_weak,psychological,0.23,M,1,english,TRUE
0,55603,prior_manipulation,know when earthquakes are about to happen,1,"[0, 0, 0, 0, 26, 0, 24, 24, 23, 26, u'?']",10,Every animal named later in the alphabet seemed to be around 26%,10,prior,rare_weak,psychological,0.2,N,1,english,TRUE
0,55603,prior_manipulation,know when earthquakes are about to happen,1,"[0, 0, 0, 0, 26, 0, 24, 24, 23, 26, u'?']",10,Every animal named later in the alphabet seemed to be around 26%,10,prior,rare_weak,psychological,0.23,O,1,english,TRUE
2,218166,prior_manipulation,know when earthquakes are about to happen,1,"[26, 28, 1, 2, 0, 25, 23, 26, 1, 1, u'?']",10,"Half of the previous ones had a decent score. I went with 3 out of 5 to have the same ability during this conjecture. I suspect the overall average will be a little better than half, once all animals are inspected.",10,prior,rare_weak,psychological,0.04,K,1,English,TRUE
2,218166,prior_manipulation,know when earthquakes are about to happen,1,"[26, 28, 1, 2, 0, 25, 23, 26, 1, 1, u'?']",10,"Half of the previous ones had a decent score. I went with 3 out of 5 to have the same ability during this conjecture. I suspect the overall average will be a little better than half, once all animals are inspected.",10,prior,rare_weak,psychological,0,L,1,English,TRUE
2,218166,prior_manipulation,know when earthquakes are about to happen,1,"[26, 28, 1, 2, 0, 25, 23, 26, 1, 1, u'?']",10,"Half of the previous ones had a decent score. I went with 3 out of 5 to have the same ability during this conjecture. I suspect the overall average will be a little better than half, once all animals are inspected.",10,prior,rare_weak,psychological,0.26,M,1,English,TRUE
2,218166,prior_manipulation,know when earthquakes are about to happen,1,"[26, 28, 1, 2, 0, 25, 23, 26, 1, 1, u'?']",10,"Half of the previous ones had a decent score. I went with 3 out of 5 to have the same ability during this conjecture. I suspect the overall average will be a little better than half, once all animals are inspected.",10,prior,rare_weak,psychological,0.26,N,1,English,TRUE
2,218166,prior_manipulation,know when earthquakes are about to happen,1,"[26, 28, 1, 2, 0, 25, 23, 26, 1, 1, u'?']",10,"Half of the previous ones had a decent score. I went with 3 out of 5 to have the same ability during this conjecture. I suspect the overall average will be a little better than half, once all animals are inspected.",10,prior,rare_weak,psychological,0.28,O,1,English,TRUE
3,50795,prior_manipulation,know when earthquakes are about to happen,1,"[99, 100, 27, 98, 98, 25, 25, 100, 27, 24, u'?']",10,it seemed like a pattern,10,prior,weak_or_deterministic,psychological,0.96,K,1,english,TRUE
3,50795,prior_manipulation,know when earthquakes are about to happen,1,"[99, 100, 27, 98, 98, 25, 25, 100, 27, 24, u'?']",10,it seemed like a pattern,10,prior,weak_or_deterministic,psychological,0.95,L,1,english,TRUE
3,50795,prior_manipulation,know when earthquakes are about to happen,1,"[99, 100, 27, 98, 98, 25, 25, 100, 27, 24, u'?']",10,it seemed like a pattern,10,prior,weak_or_deterministic,psychological,0.28,M,1,english,TRUE
3,50795,prior_manipulation,know when earthquakes are about to happen,1,"[99, 100, 27, 98, 98, 25, 25, 100, 27, 24, u'?']",10,it seemed like a pattern,10,prior,weak_or_deterministic,psychological,0.29,N,1,english,TRUE
3,50795,prior_manipulation,know when earthquakes are about to happen,1,"[99, 100, 27, 98, 98, 25, 25, 100, 27, 24, u'?']",10,it seemed like a pattern,10,prior,weak_or_deterministic,psychological,0.95,O,1,english,TRUE
4,200511,prior_manipulation,know when earthquakes are about to happen,1,"[100, 76, 100, 73, 74, 100, 78, 98, 72, 100, u'?']",10,"I know the animals are probably random, but I went with the pattern I saw with A through J- 100, not 100, 100, two not 100, 100, three not 100, and so on. And I put near 98% for animal M since that was similar to the pattern between animals F and J.",10,prior,strong_or_deterministic,psychological,0.78,K,1,English,TRUE
4,200511,prior_manipulation,know when earthquakes are about to happen,1,"[100, 76, 100, 73, 74, 100, 78, 98, 72, 100, u'?']",10,"I know the animals are probably random, but I went with the pattern I saw with A through J- 100, not 100, 100, two not 100, 100, three not 100, and so on. And I put near 98% for animal M since that was similar to the pattern between animals F and J.",10,prior,strong_or_deterministic,psychological,0.79,L,1,English,TRUE
4,200511,prior_manipulation,know when earthquakes are about to happen,1,"[100, 76, 100, 73, 74, 100, 78, 98, 72, 100, u'?']",10,"I know the animals are probably random, but I went with the pattern I saw with A through J- 100, not 100, 100, two not 100, 100, three not 100, and so on. And I put near 98% for animal M since that was similar to the pattern between animals F and J.",10,prior,strong_or_deterministic,psychological,0.94,M,1,English,TRUE
4,200511,prior_manipulation,know when earthquakes are about to happen,1,"[100, 76, 100, 73, 74, 100, 78, 98, 72, 100, u'?']",10,"I know the animals are probably random, but I went with the pattern I saw with A through J- 100, not 100, 100, two not 100, 100, three not 100, and so on. And I put near 98% for animal M since that was similar to the pattern between animals F and J.",10,prior,strong_or_deterministic,psychological,0.79,N,1,English,TRUE
4,200511,prior_manipulation,know when earthquakes are about to happen,1,"[100, 76, 100, 73, 74, 100, 78, 98, 72, 100, u'?']",10,"I know the animals are probably random, but I went with the pattern I saw with A through J- 100, not 100, 100, two not 100, 100, three not 100, and so on. And I put near 98% for animal M since that was similar to the pattern between animals F and J.",10,prior,strong_or_deterministic,psychological,1,O,1,English,TRUE
5,78886,prior_manipulation,know when earthquakes are about to happen,1,"[0, 100, 100, 1, 0, 0, 100, 100, 100, 0, u'?']",10,I tried matching a pattern in the alphabet.,10,prior,rare_deterministic,psychological,0,K,1,English,TRUE
5,78886,prior_manipulation,know when earthquakes are about to happen,1,"[0, 100, 100, 1, 0, 0, 100, 100, 100, 0, u'?']",10,I tried matching a pattern in the alphabet.,10,prior,rare_deterministic,psychological,1,L,1,English,TRUE
5,78886,prior_manipulation,know when earthquakes are about to happen,1,"[0, 100, 100, 1, 0, 0, 100, 100, 100, 0, u'?']",10,I tried matching a pattern in the alphabet.,10,prior,rare_deterministic,psychological,1,M,1,English,TRUE
5,78886,prior_manipulation,know when earthquakes are about to happen,1,"[0, 100, 100, 1, 0, 0, 100, 100, 100, 0, u'?']",10,I tried matching a pattern in the alphabet.,10,prior,rare_deterministic,psychological,0,N,1,English,TRUE
5,78886,prior_manipulation,know when earthquakes are about to happen,1,"[0, 100, 100, 1, 0, 0, 100, 100, 100, 0, u'?']",10,I tried matching a pattern in the alphabet.,10,prior,rare_deterministic,psychological,1,O,1,English,TRUE
6,254183,prior_manipulation,know when earthquakes are about to happen,1,"[46, 0, 1, 51, 44, 0, 51, 0, 52, 0, u'?']",10,For the most part it seemed every other one found either had a little or half. So I followed that type of pattern.,10,prior,rare_half,psychological,0.46,K,1,English,TRUE
6,254183,prior_manipulation,know when earthquakes are about to happen,1,"[46, 0, 1, 51, 44, 0, 51, 0, 52, 0, u'?']",10,For the most part it seemed every other one found either had a little or half. So I followed that type of pattern.,10,prior,rare_half,psychological,0.01,L,1,English,TRUE
6,254183,prior_manipulation,know when earthquakes are about to happen,1,"[46, 0, 1, 51, 44, 0, 51, 0, 52, 0, u'?']",10,For the most part it seemed every other one found either had a little or half. So I followed that type of pattern.,10,prior,rare_half,psychological,0.42,M,1,English,TRUE
6,254183,prior_manipulation,know when earthquakes are about to happen,1,"[46, 0, 1, 51, 44, 0, 51, 0, 52, 0, u'?']",10,For the most part it seemed every other one found either had a little or half. So I followed that type of pattern.,10,prior,rare_half,psychological,0,N,1,English,TRUE
6,254183,prior_manipulation,know when earthquakes are about to happen,1,"[46, 0, 1, 51, 44, 0, 51, 0, 52, 0, u'?']",10,For the most part it seemed every other one found either had a little or half. So I followed that type of pattern.,10,prior,rare_half,psychological,0.45,O,1,English,TRUE
7,47414,prior_manipulation,know when earthquakes are about to happen,1,"[51, 50, 1, 1, 52, 0, 1, 52, 51, 0, u'?']",10,I just went with the pattern as seen in the chart.,10,prior,rare_half,psychological,0,K,1,English,TRUE
7,47414,prior_manipulation,know when earthquakes are about to happen,1,"[51, 50, 1, 1, 52, 0, 1, 52, 51, 0, u'?']",10,I just went with the pattern as seen in the chart.,10,prior,rare_half,psychological,0.09,L,1,English,TRUE
7,47414,prior_manipulation,know when earthquakes are about to happen,1,"[51, 50, 1, 1, 52, 0, 1, 52, 51, 0, u'?']",10,I just went with the pattern as seen in the chart.,10,prior,rare_half,psychological,0.48,M,1,English,TRUE
7,47414,prior_manipulation,know when earthquakes are about to happen,1,"[51, 50, 1, 1, 52, 0, 1, 52, 51, 0, u'?']",10,I just went with the pattern as seen in the chart.,10,prior,rare_half,psychological,0.48,N,1,English,TRUE
7,47414,prior_manipulation,know when earthquakes are about to happen,1,"[51, 50, 1, 1, 52, 0, 1, 52, 51, 0, u'?']",10,I just went with the pattern as seen in the chart.,10,prior,rare_half,psychological,0,O,1,English,TRUE
8,28172,prior_manipulation,know when earthquakes are about to happen,1,"[0, 99, 99, 0, 0, 100, 0, 100, 0, 97, u'?']",10,This seems to be consistent and reflective of the data on the previous page.,10,prior,rare_deterministic,psychological,0.9,K,1,English,TRUE
8,28172,prior_manipulation,know when earthquakes are about to happen,1,"[0, 99, 99, 0, 0, 100, 0, 100, 0, 97, u'?']",10,This seems to be consistent and reflective of the data on the previous page.,10,prior,rare_deterministic,psychological,0.98,L,1,English,TRUE
8,28172,prior_manipulation,know when earthquakes are about to happen,1,"[0, 99, 99, 0, 0, 100, 0, 100, 0, 97, u'?']",10,This seems to be consistent and reflective of the data on the previous page.,10,prior,rare_deterministic,psychological,1,M,1,English,TRUE
8,28172,prior_manipulation,know when earthquakes are about to happen,1,"[0, 99, 99, 0, 0, 100, 0, 100, 0, 97, u'?']",10,This seems to be consistent and reflective of the data on the previous page.,10,prior,rare_deterministic,psychological,0.9,N,1,English,TRUE
8,28172,prior_manipulation,know when earthquakes are about to happen,1,"[0, 99, 99, 0, 0, 100, 0, 100, 0, 97, u'?']",10,This seems to be consistent and reflective of the data on the previous page.,10,prior,rare_deterministic,psychological,0.89,O,1,English,TRUE
9,104571,prior_manipulation,know when earthquakes are about to happen,1,"[70, 45, 30, 0, 95, 55, 5, 100, 20, 80, u'?']",10,I did not observe the pattern so it is a wild guess,10,prior,uniform,psychological,0.31,K,1,English,TRUE
9,104571,prior_manipulation,know when earthquakes are about to happen,1,"[70, 45, 30, 0, 95, 55, 5, 100, 20, 80, u'?']",10,I did not observe the pattern so it is a wild guess,10,prior,uniform,psychological,0.4,L,1,English,TRUE
9,104571,prior_manipulation,know when earthquakes are about to happen,1,"[70, 45, 30, 0, 95, 55, 5, 100, 20, 80, u'?']",10,I did not observe the pattern so it is a wild guess,10,prior,uniform,psychological,0.35,M,1,English,TRUE
9,104571,prior_manipulation,know when earthquakes are about to happen,1,"[70, 45, 30, 0, 95, 55, 5, 100, 20, 80, u'?']",10,I did not observe the pattern so it is a wild guess,10,prior,uniform,psychological,0.42,N,1,English,TRUE
9,104571,prior_manipulation,know when earthquakes are about to happen,1,"[70, 45, 30, 0, 95, 55, 5, 100, 20, 80, u'?']",10,I did not observe the pattern so it is a wild guess,10,prior,uniform,psychological,0.49,O,1,English,TRUE
11,128757,prior_manipulation,know when earthquakes are about to happen,1,"[99, 51, 53, 97, 100, 50, 99, 99, 48, 48, u'?']",10,"There was a pattern of 1 or 2 small numbers and then two bigger numbers as far i could tell.
",10,prior,half_or_deterministic,psychological,0.83,K,1,English,TRUE
11,128757,prior_manipulation,know when earthquakes are about to happen,1,"[99, 51, 53, 97, 100, 50, 99, 99, 48, 48, u'?']",10,"There was a pattern of 1 or 2 small numbers and then two bigger numbers as far i could tell.
",10,prior,half_or_deterministic,psychological,0.84,L,1,English,TRUE
11,128757,prior_manipulation,know when earthquakes are about to happen,1,"[99, 51, 53, 97, 100, 50, 99, 99, 48, 48, u'?']",10,"There was a pattern of 1 or 2 small numbers and then two bigger numbers as far i could tell.
",10,prior,half_or_deterministic,psychological,0.46,M,1,English,TRUE
11,128757,prior_manipulation,know when earthquakes are about to happen,1,"[99, 51, 53, 97, 100, 50, 99, 99, 48, 48, u'?']",10,"There was a pattern of 1 or 2 small numbers and then two bigger numbers as far i could tell.
",10,prior,half_or_deterministic,psychological,0.45,N,1,English,TRUE
11,128757,prior_manipulation,know when earthquakes are about to happen,1,"[99, 51, 53, 97, 100, 50, 99, 99, 48, 48, u'?']",10,"There was a pattern of 1 or 2 small numbers and then two bigger numbers as far i could tell.
",10,prior,half_or_deterministic,psychological,0.89,O,1,English,TRUE
12,178655,prior_manipulation,know when earthquakes are about to happen,1,"[76, 1, 76, 77, 76, 0, 0, 0, 73, 0, u'?']",10,i think they will be near 0 or around 75 or so based on prior info,10,prior,rare_strong,psychological,0.75,K,1,english,TRUE
12,178655,prior_manipulation,know when earthquakes are about to happen,1,"[76, 1, 76, 77, 76, 0, 0, 0, 73, 0, u'?']",10,i think they will be near 0 or around 75 or so based on prior info,10,prior,rare_strong,psychological,0.72,L,1,english,TRUE
12,178655,prior_manipulation,know when earthquakes are about to happen,1,"[76, 1, 76, 77, 76, 0, 0, 0, 73, 0, u'?']",10,i think they will be near 0 or around 75 or so based on prior info,10,prior,rare_strong,psychological,0.01,M,1,english,TRUE
12,178655,prior_manipulation,know when earthquakes are about to happen,1,"[76, 1, 76, 77, 76, 0, 0, 0, 73, 0, u'?']",10,i think they will be near 0 or around 75 or so based on prior info,10,prior,rare_strong,psychological,0.01,N,1,english,TRUE
12,178655,prior_manipulation,know when earthquakes are about to happen,1,"[76, 1, 76, 77, 76, 0, 0, 0, 73, 0, u'?']",10,i think they will be near 0 or around 75 or so based on prior info,10,prior,rare_strong,psychological,0.74,O,1,english,TRUE
13,102628,prior_manipulation,know when earthquakes are about to happen,1,"[2, 0, 0, 0, 98, 100, 100, 1, 100, 100, u'?']",10,There seems to be a bit of a recurring pattern and I just extended it to the next set of animals.,10,prior,rare_deterministic,psychological,0.96,K,1,English,TRUE
13,102628,prior_manipulation,know when earthquakes are about to happen,1,"[2, 0, 0, 0, 98, 100, 100, 1, 100, 100, u'?']",10,There seems to be a bit of a recurring pattern and I just extended it to the next set of animals.,10,prior,rare_deterministic,psychological,0.96,L,1,English,TRUE
13,102628,prior_manipulation,know when earthquakes are about to happen,1,"[2, 0, 0, 0, 98, 100, 100, 1, 100, 100, u'?']",10,There seems to be a bit of a recurring pattern and I just extended it to the next set of animals.,10,prior,rare_deterministic,psychological,0.03,M,1,English,TRUE
13,102628,prior_manipulation,know when earthquakes are about to happen,1,"[2, 0, 0, 0, 98, 100, 100, 1, 100, 100, u'?']",10,There seems to be a bit of a recurring pattern and I just extended it to the next set of animals.,10,prior,rare_deterministic,psychological,1,N,1,English,TRUE
13,102628,prior_manipulation,know when earthquakes are about to happen,1,"[2, 0, 0, 0, 98, 100, 100, 1, 100, 100, u'?']",10,There seems to be a bit of a recurring pattern and I just extended it to the next set of animals.,10,prior,rare_deterministic,psychological,1,O,1,English,TRUE
14,109778,prior_manipulation,know when earthquakes are about to happen,1,"[95, 55, 0, 100, 70, 45, 30, 5, 80, 20, u'?']",10,it was the most logical choices,10,prior,uniform,psychological,0.79,K,1,english,TRUE
14,109778,prior_manipulation,know when earthquakes are about to happen,1,"[95, 55, 0, 100, 70, 45, 30, 5, 80, 20, u'?']",10,it was the most logical choices,10,prior,uniform,psychological,0.59,L,1,english,TRUE
14,109778,prior_manipulation,know when earthquakes are about to happen,1,"[95, 55, 0, 100, 70, 45, 30, 5, 80, 20, u'?']",10,it was the most logical choices,10,prior,uniform,psychological,0.4,M,1,english,TRUE
14,109778,prior_manipulation,know when earthquakes are about to happen,1,"[95, 55, 0, 100, 70, 45, 30, 5, 80, 20, u'?']",10,it was the most logical choices,10,prior,uniform,psychological,0.36,N,1,english,TRUE
14,109778,prior_manipulation,know when earthquakes are about to happen,1,"[95, 55, 0, 100, 70, 45, 30, 5, 80, 20, u'?']",10,it was the most logical choices,10,prior,uniform,psychological,0.2,O,1,english,TRUE
16,42140,prior_manipulation,know when earthquakes are about to happen,1,"[22, 47, 51, 26, 54, 51, 28, 26, 27, 48, u'?']",10,It mirrors the other percentages,10,prior,weak_or_half,psychological,0.25,K,1,English,TRUE
16,42140,prior_manipulation,know when earthquakes are about to happen,1,"[22, 47, 51, 26, 54, 51, 28, 26, 27, 48, u'?']",10,It mirrors the other percentages,10,prior,weak_or_half,psychological,0.51,L,1,English,TRUE
16,42140,prior_manipulation,know when earthquakes are about to happen,1,"[22, 47, 51, 26, 54, 51, 28, 26, 27, 48, u'?']",10,It mirrors the other percentages,10,prior,weak_or_half,psychological,0.26,M,1,English,TRUE
16,42140,prior_manipulation,know when earthquakes are about to happen,1,"[22, 47, 51, 26, 54, 51, 28, 26, 27, 48, u'?']",10,It mirrors the other percentages,10,prior,weak_or_half,psychological,0.5,N,1,English,TRUE
16,42140,prior_manipulation,know when earthquakes are about to happen,1,"[22, 47, 51, 26, 54, 51, 28, 26, 27, 48, u'?']",10,It mirrors the other percentages,10,prior,weak_or_half,psychological,0.26,O,1,English,TRUE
17,776948,prior_manipulation,know when earthquakes are about to happen,1,"[72, 78, 76, 74, 76, 100, 100, 100, 100, 100, u'?']",10,It&quotechars closest to the numbers I saw toward the end,10,prior,strong_or_deterministic,psychological,0.91,K,1,English,TRUE
17,776948,prior_manipulation,know when earthquakes are about to happen,1,"[72, 78, 76, 74, 76, 100, 100, 100, 100, 100, u'?']",10,It&quotechars closest to the numbers I saw toward the end,10,prior,strong_or_deterministic,psychological,0.95,L,1,English,TRUE
17,776948,prior_manipulation,know when earthquakes are about to happen,1,"[72, 78, 76, 74, 76, 100, 100, 100, 100, 100, u'?']",10,It&quotechars closest to the numbers I saw toward the end,10,prior,strong_or_deterministic,psychological,1,M,1,English,TRUE
17,776948,prior_manipulation,know when earthquakes are about to happen,1,"[72, 78, 76, 74, 76, 100, 100, 100, 100, 100, u'?']",10,It&quotechars closest to the numbers I saw toward the end,10,prior,strong_or_deterministic,psychological,1,N,1,English,TRUE
17,776948,prior_manipulation,know when earthquakes are about to happen,1,"[72, 78, 76, 74, 76, 100, 100, 100, 100, 100, u'?']",10,It&quotechars closest to the numbers I saw toward the end,10,prior,strong_or_deterministic,psychological,1,O,1,English,TRUE
18,39207,prior_manipulation,know when earthquakes are about to happen,1,"[1, 72, 77, 0, 77, 73, 0, 72, 0, 1, u'?']",10,NA,10,prior,rare_strong,psychological,0.86,K,1,English,TRUE
18,39207,prior_manipulation,know when earthquakes are about to happen,1,"[1, 72, 77, 0, 77, 73, 0, 72, 0, 1, u'?']",10,NA,10,prior,rare_strong,psychological,0.05,L,1,English,TRUE
18,39207,prior_manipulation,know when earthquakes are about to happen,1,"[1, 72, 77, 0, 77, 73, 0, 72, 0, 1, u'?']",10,NA,10,prior,rare_strong,psychological,0.75,M,1,English,TRUE
18,39207,prior_manipulation,know when earthquakes are about to happen,1,"[1, 72, 77, 0, 77, 73, 0, 72, 0, 1, u'?']",10,NA,10,prior,rare_strong,psychological,0,N,1,English,TRUE
18,39207,prior_manipulation,know when earthquakes are about to happen,1,"[1, 72, 77, 0, 77, 73, 0, 72, 0, 1, u'?']",10,NA,10,prior,rare_strong,psychological,0.76,O,1,English,TRUE
19,88958,prior_manipulation,know when earthquakes are about to happen,1,"[0, 27, 23, 23, 25, 1, 0, 0, 26, 0, u'?']",10,It seemed like the average was around 25%.,10,prior,rare_weak,psychological,0.15,K,1,English,TRUE
19,88958,prior_manipulation,know when earthquakes are about to happen,1,"[0, 27, 23, 23, 25, 1, 0, 0, 26, 0, u'?']",10,It seemed like the average was around 25%.,10,prior,rare_weak,psychological,0.15,L,1,English,TRUE
19,88958,prior_manipulation,know when earthquakes are about to happen,1,"[0, 27, 23, 23, 25, 1, 0, 0, 26, 0, u'?']",10,It seemed like the average was around 25%.,10,prior,rare_weak,psychological,0.16,M,1,English,TRUE
19,88958,prior_manipulation,know when earthquakes are about to happen,1,"[0, 27, 23, 23, 25, 1, 0, 0, 26, 0, u'?']",10,It seemed like the average was around 25%.,10,prior,rare_weak,psychological,0.19,N,1,English,TRUE
19,88958,prior_manipulation,know when earthquakes are about to happen,1,"[0, 27, 23, 23, 25, 1, 0, 0, 26, 0, u'?']",10,It seemed like the average was around 25%.,10,prior,rare_weak,psychological,0.19,O,1,English,TRUE
20,170966,prior_manipulation,know when earthquakes are about to happen,1,"[22, 24, 99, 100, 24, 100, 24, 100, 27, 100, u'?']",10,"There was a pattern of an animal with around 25% knowledge of when earthquakes will happen, then the next animal would have 100% knowledge that an earthquake will happen, and so on.",10,prior,weak_or_deterministic,psychological,0.26,K,1,English,TRUE
20,170966,prior_manipulation,know when earthquakes are about to happen,1,"[22, 24, 99, 100, 24, 100, 24, 100, 27, 100, u'?']",10,"There was a pattern of an animal with around 25% knowledge of when earthquakes will happen, then the next animal would have 100% knowledge that an earthquake will happen, and so on.",10,prior,weak_or_deterministic,psychological,1,L,1,English,TRUE
20,170966,prior_manipulation,know when earthquakes are about to happen,1,"[22, 24, 99, 100, 24, 100, 24, 100, 27, 100, u'?']",10,"There was a pattern of an animal with around 25% knowledge of when earthquakes will happen, then the next animal would have 100% knowledge that an earthquake will happen, and so on.",10,prior,weak_or_deterministic,psychological,0.27,M,1,English,TRUE
20,170966,prior_manipulation,know when earthquakes are about to happen,1,"[22, 24, 99, 100, 24, 100, 24, 100, 27, 100, u'?']",10,"There was a pattern of an animal with around 25% knowledge of when earthquakes will happen, then the next animal would have 100% knowledge that an earthquake will happen, and so on.",10,prior,weak_or_deterministic,psychological,1,N,1,English,TRUE
20,170966,prior_manipulation,know when earthquakes are about to happen,1,"[22, 24, 99, 100, 24, 100, 24, 100, 27, 100, u'?']",10,"There was a pattern of an animal with around 25% knowledge of when earthquakes will happen, then the next animal would have 100% knowledge that an earthquake will happen, and so on.",10,prior,weak_or_deterministic,psychological,0.25,O,1,English,TRUE
21,168460,prior_manipulation,know when earthquakes are about to happen,1,"[55, 20, 30, 70, 45, 100, 5, 95, 80, 0, u'?']",10,"No, gut instinct.  More than 0 and less than 100.",10,prior,uniform,psychological,0.57,K,1,English,TRUE
21,168460,prior_manipulation,know when earthquakes are about to happen,1,"[55, 20, 30, 70, 45, 100, 5, 95, 80, 0, u'?']",10,"No, gut instinct.  More than 0 and less than 100.",10,prior,uniform,psychological,0.49,L,1,English,TRUE
21,168460,prior_manipulation,know when earthquakes are about to happen,1,"[55, 20, 30, 70, 45, 100, 5, 95, 80, 0, u'?']",10,"No, gut instinct.  More than 0 and less than 100.",10,prior,uniform,psychological,0.67,M,1,English,TRUE
21,168460,prior_manipulation,know when earthquakes are about to happen,1,"[55, 20, 30, 70, 45, 100, 5, 95, 80, 0, u'?']",10,"No, gut instinct.  More than 0 and less than 100.",10,prior,uniform,psychological,0.32,N,1,English,TRUE
21,168460,prior_manipulation,know when earthquakes are about to happen,1,"[55, 20, 30, 70, 45, 100, 5, 95, 80, 0, u'?']",10,"No, gut instinct.  More than 0 and less than 100.",10,prior,uniform,psychological,0.82,O,1,English,TRUE
22,187802,prior_manipulation,know when earthquakes are about to happen,1,"[75, 100, 100, 100, 100, 100, 75, 78, 76, 74, u'?']",10,50% of animals have 100% knowledge that earthquakes are about to happen and another 50% of animals have ~75% idea that earthquakes will happen.,10,prior,strong_or_deterministic,psychological,1,K,1,English,TRUE
22,187802,prior_manipulation,know when earthquakes are about to happen,1,"[75, 100, 100, 100, 100, 100, 75, 78, 76, 74, u'?']",10,50% of animals have 100% knowledge that earthquakes are about to happen and another 50% of animals have ~75% idea that earthquakes will happen.,10,prior,strong_or_deterministic,psychological,1,L,1,English,TRUE
22,187802,prior_manipulation,know when earthquakes are about to happen,1,"[75, 100, 100, 100, 100, 100, 75, 78, 76, 74, u'?']",10,50% of animals have 100% knowledge that earthquakes are about to happen and another 50% of animals have ~75% idea that earthquakes will happen.,10,prior,strong_or_deterministic,psychological,0.74,M,1,English,TRUE
22,187802,prior_manipulation,know when earthquakes are about to happen,1,"[75, 100, 100, 100, 100, 100, 75, 78, 76, 74, u'?']",10,50% of animals have 100% knowledge that earthquakes are about to happen and another 50% of animals have ~75% idea that earthquakes will happen.,10,prior,strong_or_deterministic,psychological,0.74,N,1,English,TRUE
22,187802,prior_manipulation,know when earthquakes are about to happen,1,"[75, 100, 100, 100, 100, 100, 75, 78, 76, 74, u'?']",10,50% of animals have 100% knowledge that earthquakes are about to happen and another 50% of animals have ~75% idea that earthquakes will happen.,10,prior,strong_or_deterministic,psychological,1,O,1,English,TRUE
23,189377,prior_manipulation,know when earthquakes are about to happen,1,"[24, 76, 27, 27, 25, 74, 79, 27, 72, 78, u'?']",10,I think every 2 animals found have a greater chance of knowing about the earthquakes coming,10,prior,weak_or_strong,psychological,0.22,K,1,English,TRUE
23,189377,prior_manipulation,know when earthquakes are about to happen,1,"[24, 76, 27, 27, 25, 74, 79, 27, 72, 78, u'?']",10,I think every 2 animals found have a greater chance of knowing about the earthquakes coming,10,prior,weak_or_strong,psychological,0.66,L,1,English,TRUE
23,189377,prior_manipulation,know when earthquakes are about to happen,1,"[24, 76, 27, 27, 25, 74, 79, 27, 72, 78, u'?']",10,I think every 2 animals found have a greater chance of knowing about the earthquakes coming,10,prior,weak_or_strong,psychological,0.67,M,1,English,TRUE
23,189377,prior_manipulation,know when earthquakes are about to happen,1,"[24, 76, 27, 27, 25, 74, 79, 27, 72, 78, u'?']",10,I think every 2 animals found have a greater chance of knowing about the earthquakes coming,10,prior,weak_or_strong,psychological,0.26,N,1,English,TRUE
23,189377,prior_manipulation,know when earthquakes are about to happen,1,"[24, 76, 27, 27, 25, 74, 79, 27, 72, 78, u'?']",10,I think every 2 animals found have a greater chance of knowing about the earthquakes coming,10,prior,weak_or_strong,psychological,0.73,O,1,English,TRUE
24,223103,prior_manipulation,know when earthquakes are about to happen,1,"[46, 0, 49, 49, 0, 0, 0, 0, 49, 54, u'?']",10,"there&quotechars only a 50% chance of an animal being able to know when earthquakes are about to happen at all, and even when they do know, only about half of them do.  So I made my answers reflect that.",10,prior,rare_half,psychological,0,K,1,english,TRUE
24,223103,prior_manipulation,know when earthquakes are about to happen,1,"[46, 0, 49, 49, 0, 0, 0, 0, 49, 54, u'?']",10,"there&quotechars only a 50% chance of an animal being able to know when earthquakes are about to happen at all, and even when they do know, only about half of them do.  So I made my answers reflect that.",10,prior,rare_half,psychological,0.42,L,1,english,TRUE
24,223103,prior_manipulation,know when earthquakes are about to happen,1,"[46, 0, 49, 49, 0, 0, 0, 0, 49, 54, u'?']",10,"there&quotechars only a 50% chance of an animal being able to know when earthquakes are about to happen at all, and even when they do know, only about half of them do.  So I made my answers reflect that.",10,prior,rare_half,psychological,0,M,1,english,TRUE
24,223103,prior_manipulation,know when earthquakes are about to happen,1,"[46, 0, 49, 49, 0, 0, 0, 0, 49, 54, u'?']",10,"there&quotechars only a 50% chance of an animal being able to know when earthquakes are about to happen at all, and even when they do know, only about half of them do.  So I made my answers reflect that.",10,prior,rare_half,psychological,0,N,1,english,TRUE
24,223103,prior_manipulation,know when earthquakes are about to happen,1,"[46, 0, 49, 49, 0, 0, 0, 0, 49, 54, u'?']",10,"there&quotechars only a 50% chance of an animal being able to know when earthquakes are about to happen at all, and even when they do know, only about half of them do.  So I made my answers reflect that.",10,prior,rare_half,psychological,0.4,O,1,english,TRUE
25,235636,prior_manipulation,know when earthquakes are about to happen,1,"[2, 1, 1, 98, 99, 100, 0, 100, 0, 99, u'?']",10,I did a random guess based off the percentages of the previous studied animals.,10,prior,rare_deterministic,psychological,0.99,K,1,English,TRUE
25,235636,prior_manipulation,know when earthquakes are about to happen,1,"[2, 1, 1, 98, 99, 100, 0, 100, 0, 99, u'?']",10,I did a random guess based off the percentages of the previous studied animals.,10,prior,rare_deterministic,psychological,0,L,1,English,TRUE
25,235636,prior_manipulation,know when earthquakes are about to happen,1,"[2, 1, 1, 98, 99, 100, 0, 100, 0, 99, u'?']",10,I did a random guess based off the percentages of the previous studied animals.,10,prior,rare_deterministic,psychological,0.09,M,1,English,TRUE
25,235636,prior_manipulation,know when earthquakes are about to happen,1,"[2, 1, 1, 98, 99, 100, 0, 100, 0, 99, u'?']",10,I did a random guess based off the percentages of the previous studied animals.,10,prior,rare_deterministic,psychological,1,N,1,English,TRUE
25,235636,prior_manipulation,know when earthquakes are about to happen,1,"[2, 1, 1, 98, 99, 100, 0, 100, 0, 99, u'?']",10,I did a random guess based off the percentages of the previous studied animals.,10,prior,rare_deterministic,psychological,0.02,O,1,English,TRUE
26,136143,prior_manipulation,know when earthquakes are about to happen,1,"[77, 26, 71, 27, 78, 75, 20, 27, 21, 79, u'?']",10,"I know there is some type of pattern going on, and I think a few of the animals after J will have poor ability to detect earthquakes.",10,prior,weak_or_strong,psychological,0.21,K,1,english,TRUE
26,136143,prior_manipulation,know when earthquakes are about to happen,1,"[77, 26, 71, 27, 78, 75, 20, 27, 21, 79, u'?']",10,"I know there is some type of pattern going on, and I think a few of the animals after J will have poor ability to detect earthquakes.",10,prior,weak_or_strong,psychological,0.22,L,1,english,TRUE
26,136143,prior_manipulation,know when earthquakes are about to happen,1,"[77, 26, 71, 27, 78, 75, 20, 27, 21, 79, u'?']",10,"I know there is some type of pattern going on, and I think a few of the animals after J will have poor ability to detect earthquakes.",10,prior,weak_or_strong,psychological,0.2,M,1,english,TRUE
26,136143,prior_manipulation,know when earthquakes are about to happen,1,"[77, 26, 71, 27, 78, 75, 20, 27, 21, 79, u'?']",10,"I know there is some type of pattern going on, and I think a few of the animals after J will have poor ability to detect earthquakes.",10,prior,weak_or_strong,psychological,0.2,N,1,english,TRUE
26,136143,prior_manipulation,know when earthquakes are about to happen,1,"[77, 26, 71, 27, 78, 75, 20, 27, 21, 79, u'?']",10,"I know there is some type of pattern going on, and I think a few of the animals after J will have poor ability to detect earthquakes.",10,prior,weak_or_strong,psychological,0.8,O,1,english,TRUE
27,102647,prior_manipulation,know when earthquakes are about to happen,1,"[0, 0, 100, 98, 1, 0, 100, 98, 99, 0, u'?']",10,They are just guesses. You won&quotechart know until you study the animal closely. Seems like more animals down the line know more than they don&quotechart.,10,prior,rare_deterministic,psychological,0.32,K,1,english,TRUE
27,102647,prior_manipulation,know when earthquakes are about to happen,1,"[0, 0, 100, 98, 1, 0, 100, 98, 99, 0, u'?']",10,They are just guesses. You won&quotechart know until you study the animal closely. Seems like more animals down the line know more than they don&quotechart.,10,prior,rare_deterministic,psychological,0.54,L,1,english,TRUE
27,102647,prior_manipulation,know when earthquakes are about to happen,1,"[0, 0, 100, 98, 1, 0, 100, 98, 99, 0, u'?']",10,They are just guesses. You won&quotechart know until you study the animal closely. Seems like more animals down the line know more than they don&quotechart.,10,prior,rare_deterministic,psychological,0.5,M,1,english,TRUE
27,102647,prior_manipulation,know when earthquakes are about to happen,1,"[0, 0, 100, 98, 1, 0, 100, 98, 99, 0, u'?']",10,They are just guesses. You won&quotechart know until you study the animal closely. Seems like more animals down the line know more than they don&quotechart.,10,prior,rare_deterministic,psychological,0.77,N,1,english,TRUE
27,102647,prior_manipulation,know when earthquakes are about to happen,1,"[0, 0, 100, 98, 1, 0, 100, 98, 99, 0, u'?']",10,They are just guesses. You won&quotechart know until you study the animal closely. Seems like more animals down the line know more than they don&quotechart.,10,prior,rare_deterministic,psychological,0.72,O,1,english,TRUE
29,230554,prior_manipulation,know when earthquakes are about to happen,1,"[100, 46, 99, 100, 46, 51, 100, 97, 50, 52, u'?']",10,Started out thinking 100% was every 4th letter but then just kind of guessed,10,prior,half_or_deterministic,psychological,1,K,1,English,TRUE
29,230554,prior_manipulation,know when earthquakes are about to happen,1,"[100, 46, 99, 100, 46, 51, 100, 97, 50, 52, u'?']",10,Started out thinking 100% was every 4th letter but then just kind of guessed,10,prior,half_or_deterministic,psychological,0.49,L,1,English,TRUE
29,230554,prior_manipulation,know when earthquakes are about to happen,1,"[100, 46, 99, 100, 46, 51, 100, 97, 50, 52, u'?']",10,Started out thinking 100% was every 4th letter but then just kind of guessed,10,prior,half_or_deterministic,psychological,0.67,M,1,English,TRUE
29,230554,prior_manipulation,know when earthquakes are about to happen,1,"[100, 46, 99, 100, 46, 51, 100, 97, 50, 52, u'?']",10,Started out thinking 100% was every 4th letter but then just kind of guessed,10,prior,half_or_deterministic,psychological,1,N,1,English,TRUE
29,230554,prior_manipulation,know when earthquakes are about to happen,1,"[100, 46, 99, 100, 46, 51, 100, 97, 50, 52, u'?']",10,Started out thinking 100% was every 4th letter but then just kind of guessed,10,prior,half_or_deterministic,psychological,0.57,O,1,English,TRUE
31,174404,prior_manipulation,know when earthquakes are about to happen,1,"[100, 99, 27, 100, 99, 27, 30, 28, 100, 24, u'?']",10,I tried to find the pattern. Although I&quotecharm now not really really sure if there was one!!,10,prior,weak_or_deterministic,psychological,0.96,K,1,English,TRUE
31,174404,prior_manipulation,know when earthquakes are about to happen,1,"[100, 99, 27, 100, 99, 27, 30, 28, 100, 24, u'?']",10,I tried to find the pattern. Although I&quotecharm now not really really sure if there was one!!,10,prior,weak_or_deterministic,psychological,0.95,L,1,English,TRUE
31,174404,prior_manipulation,know when earthquakes are about to happen,1,"[100, 99, 27, 100, 99, 27, 30, 28, 100, 24, u'?']",10,I tried to find the pattern. Although I&quotecharm now not really really sure if there was one!!,10,prior,weak_or_deterministic,psychological,0.22,M,1,English,TRUE
31,174404,prior_manipulation,know when earthquakes are about to happen,1,"[100, 99, 27, 100, 99, 27, 30, 28, 100, 24, u'?']",10,I tried to find the pattern. Although I&quotecharm now not really really sure if there was one!!,10,prior,weak_or_deterministic,psychological,0.98,N,1,English,TRUE
31,174404,prior_manipulation,know when earthquakes are about to happen,1,"[100, 99, 27, 100, 99, 27, 30, 28, 100, 24, u'?']",10,I tried to find the pattern. Although I&quotecharm now not really really sure if there was one!!,10,prior,weak_or_deterministic,psychological,0.94,O,1,English,TRUE
32,100221,prior_manipulation,know when earthquakes are about to happen,1,"[3, 1, 21, 0, 0, 21, 25, 0, 24, 27, u'?']",10,It seems that 4 out of 8 have a decent chance of determining when earthquakes are about to happen,10,prior,rare_weak,psychological,0.11,K,1,English,TRUE
32,100221,prior_manipulation,know when earthquakes are about to happen,1,"[3, 1, 21, 0, 0, 21, 25, 0, 24, 27, u'?']",10,It seems that 4 out of 8 have a decent chance of determining when earthquakes are about to happen,10,prior,rare_weak,psychological,0.03,L,1,English,TRUE
32,100221,prior_manipulation,know when earthquakes are about to happen,1,"[3, 1, 21, 0, 0, 21, 25, 0, 24, 27, u'?']",10,It seems that 4 out of 8 have a decent chance of determining when earthquakes are about to happen,10,prior,rare_weak,psychological,0.16,M,1,English,TRUE
32,100221,prior_manipulation,know when earthquakes are about to happen,1,"[3, 1, 21, 0, 0, 21, 25, 0, 24, 27, u'?']",10,It seems that 4 out of 8 have a decent chance of determining when earthquakes are about to happen,10,prior,rare_weak,psychological,0.04,N,1,English,TRUE
32,100221,prior_manipulation,know when earthquakes are about to happen,1,"[3, 1, 21, 0, 0, 21, 25, 0, 24, 27, u'?']",10,It seems that 4 out of 8 have a decent chance of determining when earthquakes are about to happen,10,prior,rare_weak,psychological,0.06,O,1,English,TRUE
33,80429,prior_manipulation,know when earthquakes are about to happen,1,"[51, 54, 53, 100, 51, 49, 97, 99, 97, 99, u'?']",10,a similar proportion as the others,10,prior,half_or_deterministic,psychological,0.55,K,1,English,TRUE
33,80429,prior_manipulation,know when earthquakes are about to happen,1,"[51, 54, 53, 100, 51, 49, 97, 99, 97, 99, u'?']",10,a similar proportion as the others,10,prior,half_or_deterministic,psychological,0.5,L,1,English,TRUE
33,80429,prior_manipulation,know when earthquakes are about to happen,1,"[51, 54, 53, 100, 51, 49, 97, 99, 97, 99, u'?']",10,a similar proportion as the others,10,prior,half_or_deterministic,psychological,0.92,M,1,English,TRUE
33,80429,prior_manipulation,know when earthquakes are about to happen,1,"[51, 54, 53, 100, 51, 49, 97, 99, 97, 99, u'?']",10,a similar proportion as the others,10,prior,half_or_deterministic,psychological,0.94,N,1,English,TRUE
33,80429,prior_manipulation,know when earthquakes are about to happen,1,"[51, 54, 53, 100, 51, 49, 97, 99, 97, 99, u'?']",10,a similar proportion as the others,10,prior,half_or_deterministic,psychological,0.49,O,1,English,TRUE
36,157297,prior_manipulation,know when earthquakes are about to happen,1,"[99, 71, 78, 100, 74, 100, 78, 99, 78, 99, u'?']",10,"It seemed that maybe a pattern was forming that every 2 or 3 animals found had a high knowledge of earthquakes, but the others around 70%.",10,prior,strong_or_deterministic,psychological,0.72,K,1,English,TRUE
36,157297,prior_manipulation,know when earthquakes are about to happen,1,"[99, 71, 78, 100, 74, 100, 78, 99, 78, 99, u'?']",10,"It seemed that maybe a pattern was forming that every 2 or 3 animals found had a high knowledge of earthquakes, but the others around 70%.",10,prior,strong_or_deterministic,psychological,0.72,L,1,English,TRUE
36,157297,prior_manipulation,know when earthquakes are about to happen,1,"[99, 71, 78, 100, 74, 100, 78, 99, 78, 99, u'?']",10,"It seemed that maybe a pattern was forming that every 2 or 3 animals found had a high knowledge of earthquakes, but the others around 70%.",10,prior,strong_or_deterministic,psychological,0.94,M,1,English,TRUE
36,157297,prior_manipulation,know when earthquakes are about to happen,1,"[99, 71, 78, 100, 74, 100, 78, 99, 78, 99, u'?']",10,"It seemed that maybe a pattern was forming that every 2 or 3 animals found had a high knowledge of earthquakes, but the others around 70%.",10,prior,strong_or_deterministic,psychological,0.71,N,1,English,TRUE
36,157297,prior_manipulation,know when earthquakes are about to happen,1,"[99, 71, 78, 100, 74, 100, 78, 99, 78, 99, u'?']",10,"It seemed that maybe a pattern was forming that every 2 or 3 animals found had a high knowledge of earthquakes, but the others around 70%.",10,prior,strong_or_deterministic,psychological,0.93,O,1,English,TRUE
37,171548,prior_manipulation,know when earthquakes are about to happen,1,"[50, 100, 48, 100, 94, 100, 54, 53, 100, 46, u'?']",10,I think that about every other animal can fully detect an earthquake based on the data that was shown.,10,prior,half_or_deterministic,psychological,0.32,K,1,English,TRUE
37,171548,prior_manipulation,know when earthquakes are about to happen,1,"[50, 100, 48, 100, 94, 100, 54, 53, 100, 46, u'?']",10,I think that about every other animal can fully detect an earthquake based on the data that was shown.,10,prior,half_or_deterministic,psychological,1,L,1,English,TRUE
37,171548,prior_manipulation,know when earthquakes are about to happen,1,"[50, 100, 48, 100, 94, 100, 54, 53, 100, 46, u'?']",10,I think that about every other animal can fully detect an earthquake based on the data that was shown.,10,prior,half_or_deterministic,psychological,0.29,M,1,English,TRUE
37,171548,prior_manipulation,know when earthquakes are about to happen,1,"[50, 100, 48, 100, 94, 100, 54, 53, 100, 46, u'?']",10,I think that about every other animal can fully detect an earthquake based on the data that was shown.,10,prior,half_or_deterministic,psychological,0.97,N,1,English,TRUE
37,171548,prior_manipulation,know when earthquakes are about to happen,1,"[50, 100, 48, 100, 94, 100, 54, 53, 100, 46, u'?']",10,I think that about every other animal can fully detect an earthquake based on the data that was shown.,10,prior,half_or_deterministic,psychological,0.24,O,1,English,TRUE
38,138150,prior_manipulation,know when earthquakes are about to happen,1,"[56, 0, 1, 0, 1, 51, 2, 54, 51, 49, u'?']",10,"It seemed like about half the animals had about a 50% chance of detecting earthquakes, and the other half had close to 0%. I gave the new animals chances in line with those numbers.",10,prior,rare_half,psychological,0.47,K,1,English,TRUE
38,138150,prior_manipulation,know when earthquakes are about to happen,1,"[56, 0, 1, 0, 1, 51, 2, 54, 51, 49, u'?']",10,"It seemed like about half the animals had about a 50% chance of detecting earthquakes, and the other half had close to 0%. I gave the new animals chances in line with those numbers.",10,prior,rare_half,psychological,0,L,1,English,TRUE
38,138150,prior_manipulation,know when earthquakes are about to happen,1,"[56, 0, 1, 0, 1, 51, 2, 54, 51, 49, u'?']",10,"It seemed like about half the animals had about a 50% chance of detecting earthquakes, and the other half had close to 0%. I gave the new animals chances in line with those numbers.",10,prior,rare_half,psychological,0.48,M,1,English,TRUE
38,138150,prior_manipulation,know when earthquakes are about to happen,1,"[56, 0, 1, 0, 1, 51, 2, 54, 51, 49, u'?']",10,"It seemed like about half the animals had about a 50% chance of detecting earthquakes, and the other half had close to 0%. I gave the new animals chances in line with those numbers.",10,prior,rare_half,psychological,0.01,N,1,English,TRUE
38,138150,prior_manipulation,know when earthquakes are about to happen,1,"[56, 0, 1, 0, 1, 51, 2, 54, 51, 49, u'?']",10,"It seemed like about half the animals had about a 50% chance of detecting earthquakes, and the other half had close to 0%. I gave the new animals chances in line with those numbers.",10,prior,rare_half,psychological,0.26,O,1,English,TRUE
40,251785,prior_manipulation,know when earthquakes are about to happen,1,"[23, 0, 0, 1, 0, 0, 20, 24, 19, 24, u'?']",10,I simply tried to identify a pattern and followed my intuition.,10,prior,rare_weak,psychological,0.29,K,1,English,TRUE
40,251785,prior_manipulation,know when earthquakes are about to happen,1,"[23, 0, 0, 1, 0, 0, 20, 24, 19, 24, u'?']",10,I simply tried to identify a pattern and followed my intuition.,10,prior,rare_weak,psychological,0,L,1,English,TRUE
40,251785,prior_manipulation,know when earthquakes are about to happen,1,"[23, 0, 0, 1, 0, 0, 20, 24, 19, 24, u'?']",10,I simply tried to identify a pattern and followed my intuition.,10,prior,rare_weak,psychological,0,M,1,English,TRUE
40,251785,prior_manipulation,know when earthquakes are about to happen,1,"[23, 0, 0, 1, 0, 0, 20, 24, 19, 24, u'?']",10,I simply tried to identify a pattern and followed my intuition.,10,prior,rare_weak,psychological,0.01,N,1,English,TRUE
40,251785,prior_manipulation,know when earthquakes are about to happen,1,"[23, 0, 0, 1, 0, 0, 20, 24, 19, 24, u'?']",10,I simply tried to identify a pattern and followed my intuition.,10,prior,rare_weak,psychological,0,O,1,English,TRUE
41,68539,prior_manipulation,know when earthquakes are about to happen,1,"[26, 25, 26, 74, 72, 76, 72, 23, 74, 25, u'?']",10,In most of the species so far around 25% of them have this ability.,10,prior,weak_or_strong,psychological,0.23,K,1,English,TRUE
41,68539,prior_manipulation,know when earthquakes are about to happen,1,"[26, 25, 26, 74, 72, 76, 72, 23, 74, 25, u'?']",10,In most of the species so far around 25% of them have this ability.,10,prior,weak_or_strong,psychological,0.25,L,1,English,TRUE
41,68539,prior_manipulation,know when earthquakes are about to happen,1,"[26, 25, 26, 74, 72, 76, 72, 23, 74, 25, u'?']",10,In most of the species so far around 25% of them have this ability.,10,prior,weak_or_strong,psychological,0.24,M,1,English,TRUE
41,68539,prior_manipulation,know when earthquakes are about to happen,1,"[26, 25, 26, 74, 72, 76, 72, 23, 74, 25, u'?']",10,In most of the species so far around 25% of them have this ability.,10,prior,weak_or_strong,psychological,0.25,N,1,English,TRUE
41,68539,prior_manipulation,know when earthquakes are about to happen,1,"[26, 25, 26, 74, 72, 76, 72, 23, 74, 25, u'?']",10,In most of the species so far around 25% of them have this ability.,10,prior,weak_or_strong,psychological,0.24,O,1,English,TRUE
42,74522,prior_manipulation,know when earthquakes are about to happen,1,"[5, 30, 70, 80, 45, 20, 95, 100, 0, 55, u'?']",10,I have no way to determine this so I guessed for all of them,10,prior,uniform,psychological,0.51,K,1,English,TRUE
42,74522,prior_manipulation,know when earthquakes are about to happen,1,"[5, 30, 70, 80, 45, 20, 95, 100, 0, 55, u'?']",10,I have no way to determine this so I guessed for all of them,10,prior,uniform,psychological,0.49,L,1,English,TRUE
42,74522,prior_manipulation,know when earthquakes are about to happen,1,"[5, 30, 70, 80, 45, 20, 95, 100, 0, 55, u'?']",10,I have no way to determine this so I guessed for all of them,10,prior,uniform,psychological,0.51,M,1,English,TRUE
42,74522,prior_manipulation,know when earthquakes are about to happen,1,"[5, 30, 70, 80, 45, 20, 95, 100, 0, 55, u'?']",10,I have no way to determine this so I guessed for all of them,10,prior,uniform,psychological,0.49,N,1,English,TRUE
42,74522,prior_manipulation,know when earthquakes are about to happen,1,"[5, 30, 70, 80, 45, 20, 95, 100, 0, 55, u'?']",10,I have no way to determine this so I guessed for all of them,10,prior,uniform,psychological,0.5,O,1,English,TRUE
43,118585,prior_manipulation,know when earthquakes are about to happen,1,"[75, 78, 0, 1, 1, 74, 0, 2, 71, 72, u'?']",10,NA,10,prior,rare_strong,psychological,0.74,K,1,English,TRUE
43,118585,prior_manipulation,know when earthquakes are about to happen,1,"[75, 78, 0, 1, 1, 74, 0, 2, 71, 72, u'?']",10,NA,10,prior,rare_strong,psychological,0.68,L,1,English,TRUE
43,118585,prior_manipulation,know when earthquakes are about to happen,1,"[75, 78, 0, 1, 1, 74, 0, 2, 71, 72, u'?']",10,NA,10,prior,rare_strong,psychological,0.82,M,1,English,TRUE
43,118585,prior_manipulation,know when earthquakes are about to happen,1,"[75, 78, 0, 1, 1, 74, 0, 2, 71, 72, u'?']",10,NA,10,prior,rare_strong,psychological,0.71,N,1,English,TRUE
43,118585,prior_manipulation,know when earthquakes are about to happen,1,"[75, 78, 0, 1, 1, 74, 0, 2, 71, 72, u'?']",10,NA,10,prior,rare_strong,psychological,0.66,O,1,English,TRUE
44,444695,prior_manipulation,know when earthquakes are about to happen,1,"[45, 0, 20, 30, 70, 5, 80, 55, 95, 100, u'?']",10,"For the prior ten species, there seemed to be an upward trend for the percentile of those in a particular group would be able to know when earthquakes are about to happen. I just used that general assumption in making increasing estimates about the percentages within each animal species group for those within groups K,L,M,N, and O.",10,prior,uniform,psychological,0.12,K,1,English,TRUE
44,444695,prior_manipulation,know when earthquakes are about to happen,1,"[45, 0, 20, 30, 70, 5, 80, 55, 95, 100, u'?']",10,"For the prior ten species, there seemed to be an upward trend for the percentile of those in a particular group would be able to know when earthquakes are about to happen. I just used that general assumption in making increasing estimates about the percentages within each animal species group for those within groups K,L,M,N, and O.",10,prior,uniform,psychological,0.27,L,1,English,TRUE
44,444695,prior_manipulation,know when earthquakes are about to happen,1,"[45, 0, 20, 30, 70, 5, 80, 55, 95, 100, u'?']",10,"For the prior ten species, there seemed to be an upward trend for the percentile of those in a particular group would be able to know when earthquakes are about to happen. I just used that general assumption in making increasing estimates about the percentages within each animal species group for those within groups K,L,M,N, and O.",10,prior,uniform,psychological,0.48,M,1,English,TRUE
44,444695,prior_manipulation,know when earthquakes are about to happen,1,"[45, 0, 20, 30, 70, 5, 80, 55, 95, 100, u'?']",10,"For the prior ten species, there seemed to be an upward trend for the percentile of those in a particular group would be able to know when earthquakes are about to happen. I just used that general assumption in making increasing estimates about the percentages within each animal species group for those within groups K,L,M,N, and O.",10,prior,uniform,psychological,0.69,N,1,English,TRUE
44,444695,prior_manipulation,know when earthquakes are about to happen,1,"[45, 0, 20, 30, 70, 5, 80, 55, 95, 100, u'?']",10,"For the prior ten species, there seemed to be an upward trend for the percentile of those in a particular group would be able to know when earthquakes are about to happen. I just used that general assumption in making increasing estimates about the percentages within each animal species group for those within groups K,L,M,N, and O.",10,prior,uniform,psychological,0.88,O,1,English,TRUE
46,102591,prior_manipulation,know when earthquakes are about to happen,1,"[0, 78, 0, 75, 77, 74, 1, 81, 1, 1, u'?']",10,"Just a guess, nothing more.",10,prior,rare_strong,psychological,0.77,K,1,English,TRUE
46,102591,prior_manipulation,know when earthquakes are about to happen,1,"[0, 78, 0, 75, 77, 74, 1, 81, 1, 1, u'?']",10,"Just a guess, nothing more.",10,prior,rare_strong,psychological,0.05,L,1,English,TRUE
46,102591,prior_manipulation,know when earthquakes are about to happen,1,"[0, 78, 0, 75, 77, 74, 1, 81, 1, 1, u'?']",10,"Just a guess, nothing more.",10,prior,rare_strong,psychological,0.75,M,1,English,TRUE
46,102591,prior_manipulation,know when earthquakes are about to happen,1,"[0, 78, 0, 75, 77, 74, 1, 81, 1, 1, u'?']",10,"Just a guess, nothing more.",10,prior,rare_strong,psychological,0.74,N,1,English,TRUE
46,102591,prior_manipulation,know when earthquakes are about to happen,1,"[0, 78, 0, 75, 77, 74, 1, 81, 1, 1, u'?']",10,"Just a guess, nothing more.",10,prior,rare_strong,psychological,0.71,O,1,English,TRUE
47,104650,prior_manipulation,know when earthquakes are about to happen,1,"[25, 25, 28, 0, 0, 0, 0, 24, 0, 25, u'?']",10,IT seemed like the ratio of animals studied earlier. Some species have 25% aware and others have 0%,10,prior,rare_weak,psychological,0.23,K,1,English,TRUE
47,104650,prior_manipulation,know when earthquakes are about to happen,1,"[25, 25, 28, 0, 0, 0, 0, 24, 0, 25, u'?']",10,IT seemed like the ratio of animals studied earlier. Some species have 25% aware and others have 0%,10,prior,rare_weak,psychological,0,L,1,English,TRUE
47,104650,prior_manipulation,know when earthquakes are about to happen,1,"[25, 25, 28, 0, 0, 0, 0, 24, 0, 25, u'?']",10,IT seemed like the ratio of animals studied earlier. Some species have 25% aware and others have 0%,10,prior,rare_weak,psychological,0,M,1,English,TRUE
47,104650,prior_manipulation,know when earthquakes are about to happen,1,"[25, 25, 28, 0, 0, 0, 0, 24, 0, 25, u'?']",10,IT seemed like the ratio of animals studied earlier. Some species have 25% aware and others have 0%,10,prior,rare_weak,psychological,0.24,N,1,English,TRUE
47,104650,prior_manipulation,know when earthquakes are about to happen,1,"[25, 25, 28, 0, 0, 0, 0, 24, 0, 25, u'?']",10,IT seemed like the ratio of animals studied earlier. Some species have 25% aware and others have 0%,10,prior,rare_weak,psychological,0,O,1,English,TRUE
48,143222,prior_manipulation,know when earthquakes are about to happen,1,"[0, 20, 5, 55, 95, 100, 70, 80, 45, 30, u'?']",10,There was a variety of values in the first group without a real pattern so you would have to assume you would get a variety in the next group.,10,prior,uniform,psychological,0.43,K,1,English,TRUE
48,143222,prior_manipulation,know when earthquakes are about to happen,1,"[0, 20, 5, 55, 95, 100, 70, 80, 45, 30, u'?']",10,There was a variety of values in the first group without a real pattern so you would have to assume you would get a variety in the next group.,10,prior,uniform,psychological,0.79,L,1,English,TRUE
48,143222,prior_manipulation,know when earthquakes are about to happen,1,"[0, 20, 5, 55, 95, 100, 70, 80, 45, 30, u'?']",10,There was a variety of values in the first group without a real pattern so you would have to assume you would get a variety in the next group.,10,prior,uniform,psychological,0.13,M,1,English,TRUE
48,143222,prior_manipulation,know when earthquakes are about to happen,1,"[0, 20, 5, 55, 95, 100, 70, 80, 45, 30, u'?']",10,There was a variety of values in the first group without a real pattern so you would have to assume you would get a variety in the next group.,10,prior,uniform,psychological,0.29,N,1,English,TRUE
48,143222,prior_manipulation,know when earthquakes are about to happen,1,"[0, 20, 5, 55, 95, 100, 70, 80, 45, 30, u'?']",10,There was a variety of values in the first group without a real pattern so you would have to assume you would get a variety in the next group.,10,prior,uniform,psychological,0.62,O,1,English,TRUE
49,160623,prior_manipulation,know when earthquakes are about to happen,1,"[27, 78, 24, 76, 22, 77, 26, 75, 24, 78, u'?']",10,There was a pattern seen,10,prior,weak_or_strong,psychological,0.22,K,1,English,TRUE
49,160623,prior_manipulation,know when earthquakes are about to happen,1,"[27, 78, 24, 76, 22, 77, 26, 75, 24, 78, u'?']",10,There was a pattern seen,10,prior,weak_or_strong,psychological,0.73,L,1,English,TRUE
49,160623,prior_manipulation,know when earthquakes are about to happen,1,"[27, 78, 24, 76, 22, 77, 26, 75, 24, 78, u'?']",10,There was a pattern seen,10,prior,weak_or_strong,psychological,0.23,M,1,English,TRUE
49,160623,prior_manipulation,know when earthquakes are about to happen,1,"[27, 78, 24, 76, 22, 77, 26, 75, 24, 78, u'?']",10,There was a pattern seen,10,prior,weak_or_strong,psychological,0.74,N,1,English,TRUE
49,160623,prior_manipulation,know when earthquakes are about to happen,1,"[27, 78, 24, 76, 22, 77, 26, 75, 24, 78, u'?']",10,There was a pattern seen,10,prior,weak_or_strong,psychological,0.23,O,1,English,TRUE
50,161406,prior_manipulation,know when earthquakes are about to happen,1,"[0, 0, 26, 28, 24, 0, 27, 0, 24, 0, u'?']",10,"Half of the group of animals I was shown initially couldn&quotechart detect earthquakes, and the other half could detect them ~25% of the time. I figured the pattern would hold.",10,prior,rare_weak,psychological,0,K,1,English,TRUE
50,161406,prior_manipulation,know when earthquakes are about to happen,1,"[0, 0, 26, 28, 24, 0, 27, 0, 24, 0, u'?']",10,"Half of the group of animals I was shown initially couldn&quotechart detect earthquakes, and the other half could detect them ~25% of the time. I figured the pattern would hold.",10,prior,rare_weak,psychological,0,L,1,English,TRUE
50,161406,prior_manipulation,know when earthquakes are about to happen,1,"[0, 0, 26, 28, 24, 0, 27, 0, 24, 0, u'?']",10,"Half of the group of animals I was shown initially couldn&quotechart detect earthquakes, and the other half could detect them ~25% of the time. I figured the pattern would hold.",10,prior,rare_weak,psychological,0.24,M,1,English,TRUE
50,161406,prior_manipulation,know when earthquakes are about to happen,1,"[0, 0, 26, 28, 24, 0, 27, 0, 24, 0, u'?']",10,"Half of the group of animals I was shown initially couldn&quotechart detect earthquakes, and the other half could detect them ~25% of the time. I figured the pattern would hold.",10,prior,rare_weak,psychological,0.24,N,1,English,TRUE
50,161406,prior_manipulation,know when earthquakes are about to happen,1,"[0, 0, 26, 28, 24, 0, 27, 0, 24, 0, u'?']",10,"Half of the group of animals I was shown initially couldn&quotechart detect earthquakes, and the other half could detect them ~25% of the time. I figured the pattern would hold.",10,prior,rare_weak,psychological,0,O,1,English,TRUE
51,109533,prior_manipulation,know when earthquakes are about to happen,1,"[24, 0, 1, 29, 23, 0, 0, 27, 0, 22, u'?']",10,Seemed like it was either 0% or ~25% so was gauging expected value at around 10%,10,prior,rare_weak,psychological,0.07,K,1,English,TRUE
51,109533,prior_manipulation,know when earthquakes are about to happen,1,"[24, 0, 1, 29, 23, 0, 0, 27, 0, 22, u'?']",10,Seemed like it was either 0% or ~25% so was gauging expected value at around 10%,10,prior,rare_weak,psychological,0.07,L,1,English,TRUE
51,109533,prior_manipulation,know when earthquakes are about to happen,1,"[24, 0, 1, 29, 23, 0, 0, 27, 0, 22, u'?']",10,Seemed like it was either 0% or ~25% so was gauging expected value at around 10%,10,prior,rare_weak,psychological,0.07,M,1,English,TRUE
51,109533,prior_manipulation,know when earthquakes are about to happen,1,"[24, 0, 1, 29, 23, 0, 0, 27, 0, 22, u'?']",10,Seemed like it was either 0% or ~25% so was gauging expected value at around 10%,10,prior,rare_weak,psychological,0.07,N,1,English,TRUE
51,109533,prior_manipulation,know when earthquakes are about to happen,1,"[24, 0, 1, 29, 23, 0, 0, 27, 0, 22, u'?']",10,Seemed like it was either 0% or ~25% so was gauging expected value at around 10%,10,prior,rare_weak,psychological,0.07,O,1,English,TRUE
52,423454,prior_manipulation,know when earthquakes are about to happen,1,"[1, 46, 1, 2, 1, 47, 46, 0, 54, 51, u'?']",10,I considered the previous pattern of % o the species A thru I that I thought may also predict earthquakes.,10,prior,rare_half,psychological,0.09,K,1,English,TRUE
52,423454,prior_manipulation,know when earthquakes are about to happen,1,"[1, 46, 1, 2, 1, 47, 46, 0, 54, 51, u'?']",10,I considered the previous pattern of % o the species A thru I that I thought may also predict earthquakes.,10,prior,rare_half,psychological,0.46,L,1,English,TRUE
52,423454,prior_manipulation,know when earthquakes are about to happen,1,"[1, 46, 1, 2, 1, 47, 46, 0, 54, 51, u'?']",10,I considered the previous pattern of % o the species A thru I that I thought may also predict earthquakes.,10,prior,rare_half,psychological,0.48,M,1,English,TRUE
52,423454,prior_manipulation,know when earthquakes are about to happen,1,"[1, 46, 1, 2, 1, 47, 46, 0, 54, 51, u'?']",10,I considered the previous pattern of % o the species A thru I that I thought may also predict earthquakes.,10,prior,rare_half,psychological,0.01,N,1,English,TRUE
52,423454,prior_manipulation,know when earthquakes are about to happen,1,"[1, 46, 1, 2, 1, 47, 46, 0, 54, 51, u'?']",10,I considered the previous pattern of % o the species A thru I that I thought may also predict earthquakes.,10,prior,rare_half,psychological,0.13,O,1,English,TRUE
53,200502,prior_manipulation,know when earthquakes are about to happen,1,"[25, 1, 0, 24, 27, 1, 0, 21, 24, 0, u'?']",10,"Partial gut reaction, and partial reflection upon the percentages of Animals A through J.",10,prior,rare_weak,psychological,0.38,K,1,English,TRUE
53,200502,prior_manipulation,know when earthquakes are about to happen,1,"[25, 1, 0, 24, 27, 1, 0, 21, 24, 0, u'?']",10,"Partial gut reaction, and partial reflection upon the percentages of Animals A through J.",10,prior,rare_weak,psychological,0.04,L,1,English,TRUE
53,200502,prior_manipulation,know when earthquakes are about to happen,1,"[25, 1, 0, 24, 27, 1, 0, 21, 24, 0, u'?']",10,"Partial gut reaction, and partial reflection upon the percentages of Animals A through J.",10,prior,rare_weak,psychological,0.89,M,1,English,TRUE
53,200502,prior_manipulation,know when earthquakes are about to happen,1,"[25, 1, 0, 24, 27, 1, 0, 21, 24, 0, u'?']",10,"Partial gut reaction, and partial reflection upon the percentages of Animals A through J.",10,prior,rare_weak,psychological,0.4,N,1,English,TRUE
53,200502,prior_manipulation,know when earthquakes are about to happen,1,"[25, 1, 0, 24, 27, 1, 0, 21, 24, 0, u'?']",10,"Partial gut reaction, and partial reflection upon the percentages of Animals A through J.",10,prior,rare_weak,psychological,0.83,O,1,English,TRUE
54,124449,prior_manipulation,know when earthquakes are about to happen,1,"[21, 99, 100, 100, 29, 27, 99, 26, 27, 96, u'?']",10,It seems either a quarter or the entire population has this ability.,10,prior,weak_or_deterministic,psychological,0.32,K,1,English,TRUE
54,124449,prior_manipulation,know when earthquakes are about to happen,1,"[21, 99, 100, 100, 29, 27, 99, 26, 27, 96, u'?']",10,It seems either a quarter or the entire population has this ability.,10,prior,weak_or_deterministic,psychological,0.96,L,1,English,TRUE
54,124449,prior_manipulation,know when earthquakes are about to happen,1,"[21, 99, 100, 100, 29, 27, 99, 26, 27, 96, u'?']",10,It seems either a quarter or the entire population has this ability.,10,prior,weak_or_deterministic,psychological,1,M,1,English,TRUE
54,124449,prior_manipulation,know when earthquakes are about to happen,1,"[21, 99, 100, 100, 29, 27, 99, 26, 27, 96, u'?']",10,It seems either a quarter or the entire population has this ability.,10,prior,weak_or_deterministic,psychological,1,N,1,English,TRUE
54,124449,prior_manipulation,know when earthquakes are about to happen,1,"[21, 99, 100, 100, 29, 27, 99, 26, 27, 96, u'?']",10,It seems either a quarter or the entire population has this ability.,10,prior,weak_or_deterministic,psychological,0.36,O,1,English,TRUE
55,159883,prior_manipulation,know when earthquakes are about to happen,1,"[24, 24, 23, 77, 77, 72, 75, 24, 24, 76, u'?']",10,The pattern of animals knowing when earthquakes were about to happen seemed to go in twos. It started with a low percentage and gradually increased until it began decreasing again.,10,prior,weak_or_strong,psychological,0.33,K,1,English,TRUE
55,159883,prior_manipulation,know when earthquakes are about to happen,1,"[24, 24, 23, 77, 77, 72, 75, 24, 24, 76, u'?']",10,The pattern of animals knowing when earthquakes were about to happen seemed to go in twos. It started with a low percentage and gradually increased until it began decreasing again.,10,prior,weak_or_strong,psychological,0.55,L,1,English,TRUE
55,159883,prior_manipulation,know when earthquakes are about to happen,1,"[24, 24, 23, 77, 77, 72, 75, 24, 24, 76, u'?']",10,The pattern of animals knowing when earthquakes were about to happen seemed to go in twos. It started with a low percentage and gradually increased until it began decreasing again.,10,prior,weak_or_strong,psychological,0.55,M,1,English,TRUE
55,159883,prior_manipulation,know when earthquakes are about to happen,1,"[24, 24, 23, 77, 77, 72, 75, 24, 24, 76, u'?']",10,The pattern of animals knowing when earthquakes were about to happen seemed to go in twos. It started with a low percentage and gradually increased until it began decreasing again.,10,prior,weak_or_strong,psychological,0.7,N,1,English,TRUE
55,159883,prior_manipulation,know when earthquakes are about to happen,1,"[24, 24, 23, 77, 77, 72, 75, 24, 24, 76, u'?']",10,The pattern of animals knowing when earthquakes were about to happen seemed to go in twos. It started with a low percentage and gradually increased until it began decreasing again.,10,prior,weak_or_strong,psychological,0.7,O,1,English,TRUE
56,232628,prior_manipulation,know when earthquakes are about to happen,1,"[100, 73, 77, 100, 98, 75, 77, 100, 99, 73, u'?']",10,That is my best guest.,10,prior,strong_or_deterministic,psychological,0.43,K,1,english,TRUE
56,232628,prior_manipulation,know when earthquakes are about to happen,1,"[100, 73, 77, 100, 98, 75, 77, 100, 99, 73, u'?']",10,That is my best guest.,10,prior,strong_or_deterministic,psychological,0.2,L,1,english,TRUE
56,232628,prior_manipulation,know when earthquakes are about to happen,1,"[100, 73, 77, 100, 98, 75, 77, 100, 99, 73, u'?']",10,That is my best guest.,10,prior,strong_or_deterministic,psychological,0.35,M,1,english,TRUE
56,232628,prior_manipulation,know when earthquakes are about to happen,1,"[100, 73, 77, 100, 98, 75, 77, 100, 99, 73, u'?']",10,That is my best guest.,10,prior,strong_or_deterministic,psychological,0.44,N,1,english,TRUE
56,232628,prior_manipulation,know when earthquakes are about to happen,1,"[100, 73, 77, 100, 98, 75, 77, 100, 99, 73, u'?']",10,That is my best guest.,10,prior,strong_or_deterministic,psychological,0.42,O,1,english,TRUE
57,201694,prior_manipulation,know when earthquakes are about to happen,1,"[76, 100, 77, 100, 100, 72, 100, 99, 77, 78, u'?']",10,"As the list of animals grew longer, their ability to know when earthquakes are coming gradually got smaller, so this goes along with the pattern that I saw.",10,prior,strong_or_deterministic,psychological,0.76,K,1,English,TRUE
57,201694,prior_manipulation,know when earthquakes are about to happen,1,"[76, 100, 77, 100, 100, 72, 100, 99, 77, 78, u'?']",10,"As the list of animals grew longer, their ability to know when earthquakes are coming gradually got smaller, so this goes along with the pattern that I saw.",10,prior,strong_or_deterministic,psychological,0.72,L,1,English,TRUE
57,201694,prior_manipulation,know when earthquakes are about to happen,1,"[76, 100, 77, 100, 100, 72, 100, 99, 77, 78, u'?']",10,"As the list of animals grew longer, their ability to know when earthquakes are coming gradually got smaller, so this goes along with the pattern that I saw.",10,prior,strong_or_deterministic,psychological,0.88,M,1,English,TRUE
57,201694,prior_manipulation,know when earthquakes are about to happen,1,"[76, 100, 77, 100, 100, 72, 100, 99, 77, 78, u'?']",10,"As the list of animals grew longer, their ability to know when earthquakes are coming gradually got smaller, so this goes along with the pattern that I saw.",10,prior,strong_or_deterministic,psychological,0.76,N,1,English,TRUE
57,201694,prior_manipulation,know when earthquakes are about to happen,1,"[76, 100, 77, 100, 100, 72, 100, 99, 77, 78, u'?']",10,"As the list of animals grew longer, their ability to know when earthquakes are coming gradually got smaller, so this goes along with the pattern that I saw.",10,prior,strong_or_deterministic,psychological,0.64,O,1,English,TRUE
58,357560,prior_manipulation,know when earthquakes are about to happen,1,"[52, 0, 0, 50, 48, 0, 0, 44, 52, 0, u'?']",10,"I went with the pattern, they seem to be either 0 or about half",10,prior,rare_half,psychological,0.52,K,1,English,TRUE
58,357560,prior_manipulation,know when earthquakes are about to happen,1,"[52, 0, 0, 50, 48, 0, 0, 44, 52, 0, u'?']",10,"I went with the pattern, they seem to be either 0 or about half",10,prior,rare_half,psychological,0.01,L,1,English,TRUE
58,357560,prior_manipulation,know when earthquakes are about to happen,1,"[52, 0, 0, 50, 48, 0, 0, 44, 52, 0, u'?']",10,"I went with the pattern, they seem to be either 0 or about half",10,prior,rare_half,psychological,0.01,M,1,English,TRUE
58,357560,prior_manipulation,know when earthquakes are about to happen,1,"[52, 0, 0, 50, 48, 0, 0, 44, 52, 0, u'?']",10,"I went with the pattern, they seem to be either 0 or about half",10,prior,rare_half,psychological,0.52,N,1,English,TRUE
58,357560,prior_manipulation,know when earthquakes are about to happen,1,"[52, 0, 0, 50, 48, 0, 0, 44, 52, 0, u'?']",10,"I went with the pattern, they seem to be either 0 or about half",10,prior,rare_half,psychological,0,O,1,English,TRUE
59,475675,prior_manipulation,know when earthquakes are about to happen,1,"[23, 46, 48, 21, 48, 28, 28, 49, 27, 48, u'?']",10,The sample provided indicates at least 1 in 5 animals will sense earthquakes.  Roughly half of them will be able to predict earthquakes around 46% of the time.,10,prior,weak_or_half,psychological,0.16,K,1,English,TRUE
59,475675,prior_manipulation,know when earthquakes are about to happen,1,"[23, 46, 48, 21, 48, 28, 28, 49, 27, 48, u'?']",10,The sample provided indicates at least 1 in 5 animals will sense earthquakes.  Roughly half of them will be able to predict earthquakes around 46% of the time.,10,prior,weak_or_half,psychological,0.45,L,1,English,TRUE
59,475675,prior_manipulation,know when earthquakes are about to happen,1,"[23, 46, 48, 21, 48, 28, 28, 49, 27, 48, u'?']",10,The sample provided indicates at least 1 in 5 animals will sense earthquakes.  Roughly half of them will be able to predict earthquakes around 46% of the time.,10,prior,weak_or_half,psychological,0.42,M,1,English,TRUE
59,475675,prior_manipulation,know when earthquakes are about to happen,1,"[23, 46, 48, 21, 48, 28, 28, 49, 27, 48, u'?']",10,The sample provided indicates at least 1 in 5 animals will sense earthquakes.  Roughly half of them will be able to predict earthquakes around 46% of the time.,10,prior,weak_or_half,psychological,0.18,N,1,English,TRUE
59,475675,prior_manipulation,know when earthquakes are about to happen,1,"[23, 46, 48, 21, 48, 28, 28, 49, 27, 48, u'?']",10,The sample provided indicates at least 1 in 5 animals will sense earthquakes.  Roughly half of them will be able to predict earthquakes around 46% of the time.,10,prior,weak_or_half,psychological,0.42,O,1,English,TRUE
60,271994,prior_manipulation,know when earthquakes are about to happen,1,"[100, 100, 0, 0, 1, 100, 98, 0, 100, 1, u'?']",10,no i really have no way of knowing i just took information for the first part of the animals and made a guess,10,prior,rare_deterministic,psychological,1,K,1,English,TRUE
60,271994,prior_manipulation,know when earthquakes are about to happen,1,"[100, 100, 0, 0, 1, 100, 98, 0, 100, 1, u'?']",10,no i really have no way of knowing i just took information for the first part of the animals and made a guess,10,prior,rare_deterministic,psychological,1,L,1,English,TRUE
60,271994,prior_manipulation,know when earthquakes are about to happen,1,"[100, 100, 0, 0, 1, 100, 98, 0, 100, 1, u'?']",10,no i really have no way of knowing i just took information for the first part of the animals and made a guess,10,prior,rare_deterministic,psychological,0,M,1,English,TRUE
60,271994,prior_manipulation,know when earthquakes are about to happen,1,"[100, 100, 0, 0, 1, 100, 98, 0, 100, 1, u'?']",10,no i really have no way of knowing i just took information for the first part of the animals and made a guess,10,prior,rare_deterministic,psychological,0.06,N,1,English,TRUE
60,271994,prior_manipulation,know when earthquakes are about to happen,1,"[100, 100, 0, 0, 1, 100, 98, 0, 100, 1, u'?']",10,no i really have no way of knowing i just took information for the first part of the animals and made a guess,10,prior,rare_deterministic,psychological,0.87,O,1,English,TRUE
61,237535,prior_manipulation,know when earthquakes are about to happen,1,"[72, 72, 100, 99, 81, 76, 98, 77, 98, 100, u'?']",10,The next 5 species of animals could be really smarter then the previous five and will be able to predict any earthquakes.,10,prior,strong_or_deterministic,psychological,0.79,K,1,English,TRUE
61,237535,prior_manipulation,know when earthquakes are about to happen,1,"[72, 72, 100, 99, 81, 76, 98, 77, 98, 100, u'?']",10,The next 5 species of animals could be really smarter then the previous five and will be able to predict any earthquakes.,10,prior,strong_or_deterministic,psychological,0.62,L,1,English,TRUE
61,237535,prior_manipulation,know when earthquakes are about to happen,1,"[72, 72, 100, 99, 81, 76, 98, 77, 98, 100, u'?']",10,The next 5 species of animals could be really smarter then the previous five and will be able to predict any earthquakes.,10,prior,strong_or_deterministic,psychological,0.63,M,1,English,TRUE
61,237535,prior_manipulation,know when earthquakes are about to happen,1,"[72, 72, 100, 99, 81, 76, 98, 77, 98, 100, u'?']",10,The next 5 species of animals could be really smarter then the previous five and will be able to predict any earthquakes.,10,prior,strong_or_deterministic,psychological,0.87,N,1,English,TRUE
61,237535,prior_manipulation,know when earthquakes are about to happen,1,"[72, 72, 100, 99, 81, 76, 98, 77, 98, 100, u'?']",10,The next 5 species of animals could be really smarter then the previous five and will be able to predict any earthquakes.,10,prior,strong_or_deterministic,psychological,1,O,1,English,TRUE
62,84440,prior_manipulation,know when earthquakes are about to happen,1,"[72, 0, 0, 1, 74, 74, 77, 69, 1, 1, u'?']",10,No.,10,prior,rare_strong,psychological,0.67,K,1,english,TRUE
62,84440,prior_manipulation,know when earthquakes are about to happen,1,"[72, 0, 0, 1, 74, 74, 77, 69, 1, 1, u'?']",10,No.,10,prior,rare_strong,psychological,0.04,L,1,english,TRUE
62,84440,prior_manipulation,know when earthquakes are about to happen,1,"[72, 0, 0, 1, 74, 74, 77, 69, 1, 1, u'?']",10,No.,10,prior,rare_strong,psychological,0.03,M,1,english,TRUE
62,84440,prior_manipulation,know when earthquakes are about to happen,1,"[72, 0, 0, 1, 74, 74, 77, 69, 1, 1, u'?']",10,No.,10,prior,rare_strong,psychological,0.67,N,1,english,TRUE
62,84440,prior_manipulation,know when earthquakes are about to happen,1,"[72, 0, 0, 1, 74, 74, 77, 69, 1, 1, u'?']",10,No.,10,prior,rare_strong,psychological,0.64,O,1,english,TRUE
63,201300,prior_manipulation,know when earthquakes are about to happen,1,"[27, 73, 73, 27, 74, 22, 74, 25, 26, 75, u'?']",10,because there is an equal chance of it being around either 75% or 25%.  So I chose 50% even though it will probably be off by 25% to one direction.,10,prior,weak_or_strong,psychological,0.49,K,1,English,TRUE
63,201300,prior_manipulation,know when earthquakes are about to happen,1,"[27, 73, 73, 27, 74, 22, 74, 25, 26, 75, u'?']",10,because there is an equal chance of it being around either 75% or 25%.  So I chose 50% even though it will probably be off by 25% to one direction.,10,prior,weak_or_strong,psychological,0.49,L,1,English,TRUE
63,201300,prior_manipulation,know when earthquakes are about to happen,1,"[27, 73, 73, 27, 74, 22, 74, 25, 26, 75, u'?']",10,because there is an equal chance of it being around either 75% or 25%.  So I chose 50% even though it will probably be off by 25% to one direction.,10,prior,weak_or_strong,psychological,0.49,M,1,English,TRUE
63,201300,prior_manipulation,know when earthquakes are about to happen,1,"[27, 73, 73, 27, 74, 22, 74, 25, 26, 75, u'?']",10,because there is an equal chance of it being around either 75% or 25%.  So I chose 50% even though it will probably be off by 25% to one direction.,10,prior,weak_or_strong,psychological,0.49,N,1,English,TRUE
63,201300,prior_manipulation,know when earthquakes are about to happen,1,"[27, 73, 73, 27, 74, 22, 74, 25, 26, 75, u'?']",10,because there is an equal chance of it being around either 75% or 25%.  So I chose 50% even though it will probably be off by 25% to one direction.,10,prior,weak_or_strong,psychological,0.49,O,1,English,TRUE
64,150198,prior_manipulation,know when earthquakes are about to happen,1,"[49, 0, 0, 53, 46, 51, 1, 51, 0, 0, u'?']",10,i think the pattern is 4 with 0% ability and then the next 2 with 50%,10,prior,rare_half,psychological,0.01,K,1,english,TRUE
64,150198,prior_manipulation,know when earthquakes are about to happen,1,"[49, 0, 0, 53, 46, 51, 1, 51, 0, 0, u'?']",10,i think the pattern is 4 with 0% ability and then the next 2 with 50%,10,prior,rare_half,psychological,0.04,L,1,english,TRUE
64,150198,prior_manipulation,know when earthquakes are about to happen,1,"[49, 0, 0, 53, 46, 51, 1, 51, 0, 0, u'?']",10,i think the pattern is 4 with 0% ability and then the next 2 with 50%,10,prior,rare_half,psychological,0.47,M,1,english,TRUE
64,150198,prior_manipulation,know when earthquakes are about to happen,1,"[49, 0, 0, 53, 46, 51, 1, 51, 0, 0, u'?']",10,i think the pattern is 4 with 0% ability and then the next 2 with 50%,10,prior,rare_half,psychological,0.52,N,1,english,TRUE
64,150198,prior_manipulation,know when earthquakes are about to happen,1,"[49, 0, 0, 53, 46, 51, 1, 51, 0, 0, u'?']",10,i think the pattern is 4 with 0% ability and then the next 2 with 50%,10,prior,rare_half,psychological,0.01,O,1,english,TRUE
66,208307,prior_manipulation,know when earthquakes are about to happen,1,"[97, 24, 24, 98, 23, 100, 25, 26, 100, 100, u'?']",10,I have not noticed a pattern as to which animals have a higher accuracy of predicting earthquakes.,10,prior,weak_or_deterministic,psychological,0.16,K,1,english,TRUE
66,208307,prior_manipulation,know when earthquakes are about to happen,1,"[97, 24, 24, 98, 23, 100, 25, 26, 100, 100, u'?']",10,I have not noticed a pattern as to which animals have a higher accuracy of predicting earthquakes.,10,prior,weak_or_deterministic,psychological,0.92,L,1,english,TRUE
66,208307,prior_manipulation,know when earthquakes are about to happen,1,"[97, 24, 24, 98, 23, 100, 25, 26, 100, 100, u'?']",10,I have not noticed a pattern as to which animals have a higher accuracy of predicting earthquakes.,10,prior,weak_or_deterministic,psychological,0.35,M,1,english,TRUE
66,208307,prior_manipulation,know when earthquakes are about to happen,1,"[97, 24, 24, 98, 23, 100, 25, 26, 100, 100, u'?']",10,I have not noticed a pattern as to which animals have a higher accuracy of predicting earthquakes.,10,prior,weak_or_deterministic,psychological,0.51,N,1,english,TRUE
66,208307,prior_manipulation,know when earthquakes are about to happen,1,"[97, 24, 24, 98, 23, 100, 25, 26, 100, 100, u'?']",10,I have not noticed a pattern as to which animals have a higher accuracy of predicting earthquakes.,10,prior,weak_or_deterministic,psychological,0.7,O,1,english,TRUE
67,86468,prior_manipulation,know when earthquakes are about to happen,1,"[51, 49, 57, 53, 100, 95, 100, 98, 52, 100, u'?']",10,"There is no way to extrapolate from the previous set of animals. The best guess is that the percentages are going to vary, so I randomly selected values but tried to make them different.",10,prior,half_or_deterministic,psychological,0.55,K,1,English,TRUE
67,86468,prior_manipulation,know when earthquakes are about to happen,1,"[51, 49, 57, 53, 100, 95, 100, 98, 52, 100, u'?']",10,"There is no way to extrapolate from the previous set of animals. The best guess is that the percentages are going to vary, so I randomly selected values but tried to make them different.",10,prior,half_or_deterministic,psychological,0.72,L,1,English,TRUE
67,86468,prior_manipulation,know when earthquakes are about to happen,1,"[51, 49, 57, 53, 100, 95, 100, 98, 52, 100, u'?']",10,"There is no way to extrapolate from the previous set of animals. The best guess is that the percentages are going to vary, so I randomly selected values but tried to make them different.",10,prior,half_or_deterministic,psychological,0.62,M,1,English,TRUE
67,86468,prior_manipulation,know when earthquakes are about to happen,1,"[51, 49, 57, 53, 100, 95, 100, 98, 52, 100, u'?']",10,"There is no way to extrapolate from the previous set of animals. The best guess is that the percentages are going to vary, so I randomly selected values but tried to make them different.",10,prior,half_or_deterministic,psychological,0.8,N,1,English,TRUE
67,86468,prior_manipulation,know when earthquakes are about to happen,1,"[51, 49, 57, 53, 100, 95, 100, 98, 52, 100, u'?']",10,"There is no way to extrapolate from the previous set of animals. The best guess is that the percentages are going to vary, so I randomly selected values but tried to make them different.",10,prior,half_or_deterministic,psychological,0.57,O,1,English,TRUE
68,359373,prior_manipulation,know when earthquakes are about to happen,1,"[98, 72, 96, 77, 100, 71, 78, 100, 75, 99, u'?']",10,All the previous animals had a percentage over 70 and the letters seemed to stagger a bit back and forth.,10,prior,strong_or_deterministic,psychological,0.68,K,1,English,TRUE
68,359373,prior_manipulation,know when earthquakes are about to happen,1,"[98, 72, 96, 77, 100, 71, 78, 100, 75, 99, u'?']",10,All the previous animals had a percentage over 70 and the letters seemed to stagger a bit back and forth.,10,prior,strong_or_deterministic,psychological,0.88,L,1,English,TRUE
68,359373,prior_manipulation,know when earthquakes are about to happen,1,"[98, 72, 96, 77, 100, 71, 78, 100, 75, 99, u'?']",10,All the previous animals had a percentage over 70 and the letters seemed to stagger a bit back and forth.,10,prior,strong_or_deterministic,psychological,0.83,M,1,English,TRUE
68,359373,prior_manipulation,know when earthquakes are about to happen,1,"[98, 72, 96, 77, 100, 71, 78, 100, 75, 99, u'?']",10,All the previous animals had a percentage over 70 and the letters seemed to stagger a bit back and forth.,10,prior,strong_or_deterministic,psychological,0.99,N,1,English,TRUE
68,359373,prior_manipulation,know when earthquakes are about to happen,1,"[98, 72, 96, 77, 100, 71, 78, 100, 75, 99, u'?']",10,All the previous animals had a percentage over 70 and the letters seemed to stagger a bit back and forth.,10,prior,strong_or_deterministic,psychological,0.76,O,1,English,TRUE
69,180565,prior_manipulation,know when earthquakes are about to happen,1,"[0, 0, 78, 0, 0, 77, 77, 76, 0, 78, u'?']",10,"no, it was just a guess, i couldn&quotechart quickly see a pattern",10,prior,rare_strong,psychological,0.78,K,1,english,TRUE
69,180565,prior_manipulation,know when earthquakes are about to happen,1,"[0, 0, 78, 0, 0, 77, 77, 76, 0, 78, u'?']",10,"no, it was just a guess, i couldn&quotechart quickly see a pattern",10,prior,rare_strong,psychological,0,L,1,english,TRUE
69,180565,prior_manipulation,know when earthquakes are about to happen,1,"[0, 0, 78, 0, 0, 77, 77, 76, 0, 78, u'?']",10,"no, it was just a guess, i couldn&quotechart quickly see a pattern",10,prior,rare_strong,psychological,0,M,1,english,TRUE
69,180565,prior_manipulation,know when earthquakes are about to happen,1,"[0, 0, 78, 0, 0, 77, 77, 76, 0, 78, u'?']",10,"no, it was just a guess, i couldn&quotechart quickly see a pattern",10,prior,rare_strong,psychological,0.78,N,1,english,TRUE
69,180565,prior_manipulation,know when earthquakes are about to happen,1,"[0, 0, 78, 0, 0, 77, 77, 76, 0, 78, u'?']",10,"no, it was just a guess, i couldn&quotechart quickly see a pattern",10,prior,rare_strong,psychological,0.78,O,1,english,TRUE
70,82515,prior_manipulation,know when earthquakes are about to happen,1,"[0, 99, 100, 0, 0, 100, 100, 100, 0, 0, u'?']",10,I had to pick something so I just alternated.,10,prior,rare_deterministic,psychological,0.98,K,1,english,TRUE
70,82515,prior_manipulation,know when earthquakes are about to happen,1,"[0, 99, 100, 0, 0, 100, 100, 100, 0, 0, u'?']",10,I had to pick something so I just alternated.,10,prior,rare_deterministic,psychological,0.01,L,1,english,TRUE
70,82515,prior_manipulation,know when earthquakes are about to happen,1,"[0, 99, 100, 0, 0, 100, 100, 100, 0, 0, u'?']",10,I had to pick something so I just alternated.,10,prior,rare_deterministic,psychological,0.01,M,1,english,TRUE
70,82515,prior_manipulation,know when earthquakes are about to happen,1,"[0, 99, 100, 0, 0, 100, 100, 100, 0, 0, u'?']",10,I had to pick something so I just alternated.,10,prior,rare_deterministic,psychological,0.96,N,1,english,TRUE
70,82515,prior_manipulation,know when earthquakes are about to happen,1,"[0, 99, 100, 0, 0, 100, 100, 100, 0, 0, u'?']",10,I had to pick something so I just alternated.,10,prior,rare_deterministic,psychological,0.96,O,1,english,TRUE
71,144359,prior_manipulation,know when earthquakes are about to happen,1,"[100, 77, 99, 100, 74, 100, 99, 77, 76, 70, u'?']",10,The percentage of animals that knew that earthquakes were going to happen were very high so I predict it will continue to be high.,10,prior,strong_or_deterministic,psychological,0.78,K,1,English,TRUE
71,144359,prior_manipulation,know when earthquakes are about to happen,1,"[100, 77, 99, 100, 74, 100, 99, 77, 76, 70, u'?']",10,The percentage of animals that knew that earthquakes were going to happen were very high so I predict it will continue to be high.,10,prior,strong_or_deterministic,psychological,0.82,L,1,English,TRUE
71,144359,prior_manipulation,know when earthquakes are about to happen,1,"[100, 77, 99, 100, 74, 100, 99, 77, 76, 70, u'?']",10,The percentage of animals that knew that earthquakes were going to happen were very high so I predict it will continue to be high.,10,prior,strong_or_deterministic,psychological,0.77,M,1,English,TRUE
71,144359,prior_manipulation,know when earthquakes are about to happen,1,"[100, 77, 99, 100, 74, 100, 99, 77, 76, 70, u'?']",10,The percentage of animals that knew that earthquakes were going to happen were very high so I predict it will continue to be high.,10,prior,strong_or_deterministic,psychological,0.82,N,1,English,TRUE
71,144359,prior_manipulation,know when earthquakes are about to happen,1,"[100, 77, 99, 100, 74, 100, 99, 77, 76, 70, u'?']",10,The percentage of animals that knew that earthquakes were going to happen were very high so I predict it will continue to be high.,10,prior,strong_or_deterministic,psychological,0.88,O,1,English,TRUE
72,81277,prior_manipulation,know when earthquakes are about to happen,1,"[0, 23, 21, 24, 1, 0, 1, 24, 0, 25, u'?']",10,I tried my best to remember the pattern of the other animals,10,prior,rare_weak,psychological,0.27,K,1,English,TRUE
72,81277,prior_manipulation,know when earthquakes are about to happen,1,"[0, 23, 21, 24, 1, 0, 1, 24, 0, 25, u'?']",10,I tried my best to remember the pattern of the other animals,10,prior,rare_weak,psychological,0.21,L,1,English,TRUE
72,81277,prior_manipulation,know when earthquakes are about to happen,1,"[0, 23, 21, 24, 1, 0, 1, 24, 0, 25, u'?']",10,I tried my best to remember the pattern of the other animals,10,prior,rare_weak,psychological,0.02,M,1,English,TRUE
72,81277,prior_manipulation,know when earthquakes are about to happen,1,"[0, 23, 21, 24, 1, 0, 1, 24, 0, 25, u'?']",10,I tried my best to remember the pattern of the other animals,10,prior,rare_weak,psychological,0.06,N,1,English,TRUE
72,81277,prior_manipulation,know when earthquakes are about to happen,1,"[0, 23, 21, 24, 1, 0, 1, 24, 0, 25, u'?']",10,I tried my best to remember the pattern of the other animals,10,prior,rare_weak,psychological,0.17,O,1,English,TRUE
73,92820,prior_manipulation,know when earthquakes are about to happen,1,"[55, 100, 0, 95, 80, 30, 70, 20, 45, 5, u'?']",10,It seems to follow the pattern of the previous.,10,prior,uniform,psychological,0.56,K,1,English,TRUE
73,92820,prior_manipulation,know when earthquakes are about to happen,1,"[55, 100, 0, 95, 80, 30, 70, 20, 45, 5, u'?']",10,It seems to follow the pattern of the previous.,10,prior,uniform,psychological,0.37,L,1,English,TRUE
73,92820,prior_manipulation,know when earthquakes are about to happen,1,"[55, 100, 0, 95, 80, 30, 70, 20, 45, 5, u'?']",10,It seems to follow the pattern of the previous.,10,prior,uniform,psychological,0.99,M,1,English,TRUE
73,92820,prior_manipulation,know when earthquakes are about to happen,1,"[55, 100, 0, 95, 80, 30, 70, 20, 45, 5, u'?']",10,It seems to follow the pattern of the previous.,10,prior,uniform,psychological,0.13,N,1,English,TRUE
73,92820,prior_manipulation,know when earthquakes are about to happen,1,"[55, 100, 0, 95, 80, 30, 70, 20, 45, 5, u'?']",10,It seems to follow the pattern of the previous.,10,prior,uniform,psychological,0.77,O,1,English,TRUE
74,154861,prior_manipulation,know when earthquakes are about to happen,1,"[55, 45, 5, 100, 20, 95, 80, 70, 30, 0, u'?']",10,Seemed safe to stick to 40-50%. That appears to be about average.,10,prior,uniform,psychological,0.3,K,1,English,TRUE
74,154861,prior_manipulation,know when earthquakes are about to happen,1,"[55, 45, 5, 100, 20, 95, 80, 70, 30, 0, u'?']",10,Seemed safe to stick to 40-50%. That appears to be about average.,10,prior,uniform,psychological,0.42,L,1,English,TRUE
74,154861,prior_manipulation,know when earthquakes are about to happen,1,"[55, 45, 5, 100, 20, 95, 80, 70, 30, 0, u'?']",10,Seemed safe to stick to 40-50%. That appears to be about average.,10,prior,uniform,psychological,0.51,M,1,English,TRUE
74,154861,prior_manipulation,know when earthquakes are about to happen,1,"[55, 45, 5, 100, 20, 95, 80, 70, 30, 0, u'?']",10,Seemed safe to stick to 40-50%. That appears to be about average.,10,prior,uniform,psychological,0.59,N,1,English,TRUE
74,154861,prior_manipulation,know when earthquakes are about to happen,1,"[55, 45, 5, 100, 20, 95, 80, 70, 30, 0, u'?']",10,Seemed safe to stick to 40-50%. That appears to be about average.,10,prior,uniform,psychological,0.51,O,1,English,TRUE
75,125751,prior_manipulation,know when earthquakes are about to happen,1,"[30, 20, 80, 5, 70, 95, 0, 55, 100, 45, u'?']",10,There seem to be swings up and down in a pattern,10,prior,uniform,psychological,0.14,K,1,English,TRUE
75,125751,prior_manipulation,know when earthquakes are about to happen,1,"[30, 20, 80, 5, 70, 95, 0, 55, 100, 45, u'?']",10,There seem to be swings up and down in a pattern,10,prior,uniform,psychological,0.35,L,1,English,TRUE
75,125751,prior_manipulation,know when earthquakes are about to happen,1,"[30, 20, 80, 5, 70, 95, 0, 55, 100, 45, u'?']",10,There seem to be swings up and down in a pattern,10,prior,uniform,psychological,0.83,M,1,English,TRUE
75,125751,prior_manipulation,know when earthquakes are about to happen,1,"[30, 20, 80, 5, 70, 95, 0, 55, 100, 45, u'?']",10,There seem to be swings up and down in a pattern,10,prior,uniform,psychological,0.59,N,1,English,TRUE
75,125751,prior_manipulation,know when earthquakes are about to happen,1,"[30, 20, 80, 5, 70, 95, 0, 55, 100, 45, u'?']",10,There seem to be swings up and down in a pattern,10,prior,uniform,psychological,0.01,O,1,English,TRUE
76,190562,prior_manipulation,know when earthquakes are about to happen,1,"[22, 23, 98, 25, 100, 21, 20, 100, 99, 96, u'?']",10,It appeared that many animals fell in the 70-80% realm so I guessed that the others would fall in that realm as well. Animal O has a higher likelihood because animals named after vowels are more likely to know when earthquakes are about to happen.,10,prior,weak_or_deterministic,psychological,0.85,K,1,English,TRUE
76,190562,prior_manipulation,know when earthquakes are about to happen,1,"[22, 23, 98, 25, 100, 21, 20, 100, 99, 96, u'?']",10,It appeared that many animals fell in the 70-80% realm so I guessed that the others would fall in that realm as well. Animal O has a higher likelihood because animals named after vowels are more likely to know when earthquakes are about to happen.,10,prior,weak_or_deterministic,psychological,0.84,L,1,English,TRUE
76,190562,prior_manipulation,know when earthquakes are about to happen,1,"[22, 23, 98, 25, 100, 21, 20, 100, 99, 96, u'?']",10,It appeared that many animals fell in the 70-80% realm so I guessed that the others would fall in that realm as well. Animal O has a higher likelihood because animals named after vowels are more likely to know when earthquakes are about to happen.,10,prior,weak_or_deterministic,psychological,0.79,M,1,English,TRUE
76,190562,prior_manipulation,know when earthquakes are about to happen,1,"[22, 23, 98, 25, 100, 21, 20, 100, 99, 96, u'?']",10,It appeared that many animals fell in the 70-80% realm so I guessed that the others would fall in that realm as well. Animal O has a higher likelihood because animals named after vowels are more likely to know when earthquakes are about to happen.,10,prior,weak_or_deterministic,psychological,0.76,N,1,English,TRUE
76,190562,prior_manipulation,know when earthquakes are about to happen,1,"[22, 23, 98, 25, 100, 21, 20, 100, 99, 96, u'?']",10,It appeared that many animals fell in the 70-80% realm so I guessed that the others would fall in that realm as well. Animal O has a higher likelihood because animals named after vowels are more likely to know when earthquakes are about to happen.,10,prior,weak_or_deterministic,psychological,0.96,O,1,English,TRUE
77,318844,prior_manipulation,know when earthquakes are about to happen,1,"[73, 23, 79, 20, 24, 72, 25, 26, 74, 76, u'?']",10,I think that N will be a low percentage in the 20&quotechars and the rest will be be in or around the mid 70&quotechars.  I believe there was an increase in the number of species that were better at determining quakes between those with low percentages.,10,prior,weak_or_strong,psychological,0.74,K,1,english,TRUE
77,318844,prior_manipulation,know when earthquakes are about to happen,1,"[73, 23, 79, 20, 24, 72, 25, 26, 74, 76, u'?']",10,I think that N will be a low percentage in the 20&quotechars and the rest will be be in or around the mid 70&quotechars.  I believe there was an increase in the number of species that were better at determining quakes between those with low percentages.,10,prior,weak_or_strong,psychological,0.68,L,1,english,TRUE
77,318844,prior_manipulation,know when earthquakes are about to happen,1,"[73, 23, 79, 20, 24, 72, 25, 26, 74, 76, u'?']",10,I think that N will be a low percentage in the 20&quotechars and the rest will be be in or around the mid 70&quotechars.  I believe there was an increase in the number of species that were better at determining quakes between those with low percentages.,10,prior,weak_or_strong,psychological,0.74,M,1,english,TRUE
77,318844,prior_manipulation,know when earthquakes are about to happen,1,"[73, 23, 79, 20, 24, 72, 25, 26, 74, 76, u'?']",10,I think that N will be a low percentage in the 20&quotechars and the rest will be be in or around the mid 70&quotechars.  I believe there was an increase in the number of species that were better at determining quakes between those with low percentages.,10,prior,weak_or_strong,psychological,0.22,N,1,english,TRUE
77,318844,prior_manipulation,know when earthquakes are about to happen,1,"[73, 23, 79, 20, 24, 72, 25, 26, 74, 76, u'?']",10,I think that N will be a low percentage in the 20&quotechars and the rest will be be in or around the mid 70&quotechars.  I believe there was an increase in the number of species that were better at determining quakes between those with low percentages.,10,prior,weak_or_strong,psychological,0.68,O,1,english,TRUE
78,36690,prior_manipulation,know when earthquakes are about to happen,1,"[70, 5, 30, 0, 95, 45, 20, 55, 100, 80, u'?']",10,I felt they were able to predict most of the time,10,prior,uniform,psychological,0.59,K,1,English,TRUE
78,36690,prior_manipulation,know when earthquakes are about to happen,1,"[70, 5, 30, 0, 95, 45, 20, 55, 100, 80, u'?']",10,I felt they were able to predict most of the time,10,prior,uniform,psychological,0.49,L,1,English,TRUE
78,36690,prior_manipulation,know when earthquakes are about to happen,1,"[70, 5, 30, 0, 95, 45, 20, 55, 100, 80, u'?']",10,I felt they were able to predict most of the time,10,prior,uniform,psychological,0.79,M,1,English,TRUE
78,36690,prior_manipulation,know when earthquakes are about to happen,1,"[70, 5, 30, 0, 95, 45, 20, 55, 100, 80, u'?']",10,I felt they were able to predict most of the time,10,prior,uniform,psychological,0.56,N,1,English,TRUE
78,36690,prior_manipulation,know when earthquakes are about to happen,1,"[70, 5, 30, 0, 95, 45, 20, 55, 100, 80, u'?']",10,I felt they were able to predict most of the time,10,prior,uniform,psychological,0.71,O,1,English,TRUE
79,178354,prior_manipulation,know when earthquakes are about to happen,1,"[0, 77, 0, 0, 0, 75, 75, 81, 77, 0, u'?']",10,just seemed similar to the pattern dictated by the previous animals,10,prior,rare_strong,psychological,0,K,1,English,TRUE
79,178354,prior_manipulation,know when earthquakes are about to happen,1,"[0, 77, 0, 0, 0, 75, 75, 81, 77, 0, u'?']",10,just seemed similar to the pattern dictated by the previous animals,10,prior,rare_strong,psychological,0.73,L,1,English,TRUE
79,178354,prior_manipulation,know when earthquakes are about to happen,1,"[0, 77, 0, 0, 0, 75, 75, 81, 77, 0, u'?']",10,just seemed similar to the pattern dictated by the previous animals,10,prior,rare_strong,psychological,0.69,M,1,English,TRUE
79,178354,prior_manipulation,know when earthquakes are about to happen,1,"[0, 77, 0, 0, 0, 75, 75, 81, 77, 0, u'?']",10,just seemed similar to the pattern dictated by the previous animals,10,prior,rare_strong,psychological,0,N,1,English,TRUE
79,178354,prior_manipulation,know when earthquakes are about to happen,1,"[0, 77, 0, 0, 0, 75, 75, 81, 77, 0, u'?']",10,just seemed similar to the pattern dictated by the previous animals,10,prior,rare_strong,psychological,0,O,1,English,TRUE
80,116367,prior_manipulation,know when earthquakes are about to happen,1,"[77, 73, 76, 100, 78, 100, 100, 73, 99, 98, u'?']",10,"Well, the majority of the ones I&quotecharve seen were in the 75% range, with a few outliers. So I mostly tried to aim around there.",10,prior,strong_or_deterministic,psychological,0.81,K,1,English,TRUE
80,116367,prior_manipulation,know when earthquakes are about to happen,1,"[77, 73, 76, 100, 78, 100, 100, 73, 99, 98, u'?']",10,"Well, the majority of the ones I&quotecharve seen were in the 75% range, with a few outliers. So I mostly tried to aim around there.",10,prior,strong_or_deterministic,psychological,0.74,L,1,English,TRUE
