"workerid","rt","trial_type","property_type","trial_num","category","explanation","original_response","property","response"
0,8110,"implied_prevalence","psychological",1,"mooks",NA,NA,"are afraid of loud noises",0.93
0,7348,"implied_prevalence","psychological",2,"frams",NA,NA,"know how to ride bicycles",0.94
0,2786,"implied_prevalence","habitat",3,"dobles",NA,NA,"live in trees",0.93
0,2861,"implied_prevalence","behavior",4,"ollers",NA,NA,"chase their tails",0.94
0,4102,"implied_prevalence","behavior",5,"kweps",NA,NA,"sing beautiful songs",0.95
0,2826,"implied_prevalence","reproduction",6,"feps",NA,NA,"get erections",0.99
0,2793,"implied_prevalence","behavior",7,"plovs",NA,NA,"fly into building windows",0.97
0,2208,"implied_prevalence","behavior_aggressive",8,"stups",NA,NA,"torture other animals",0.95
0,2317,"implied_prevalence","behavior",9,"ackles",NA,NA,"sleep during the day",0.97
0,2801,"implied_prevalence","physical",10,"sapers",NA,NA,"have four legs",0.96
0,3446,"implied_prevalence","disease_other",11,"crullets",NA,NA,"transmit HIV",0.94
0,2595,"implied_prevalence","diet",12,"wugs",NA,NA,"feed on the carcasses of dead animals",0.95
0,2469,"implied_prevalence","behavior",13,"cheebas",NA,NA,"do handstands to scare off predators",0.98
0,4609,"implied_prevalence","diet",14,"fendles",NA,NA,"eat people",0.94
0,2793,"implied_prevalence","behavior",15,"lorches",NA,NA,"like to cuddle",0.95
0,2325,"implied_prevalence","diet",16,"reesles",NA,NA,"eat insects",0.96
0,2693,"implied_prevalence","behavior_aggressive",17,"trufts",NA,NA,"hunt other animals",0.97
0,2722,"implied_prevalence","physical",18,"luzaks",NA,NA,"have intensely beautiful feathers",0.96
0,2270,"implied_prevalence","reproduction",19,"taifels",NA,NA,"attract mates by secreting pheromones",1
0,2494,"implied_prevalence","behavior_aggressive",20,"zoovs",NA,NA,"capture other animals&quotechar territory",0.93
0,2939,"implied_prevalence","habitat",21,"morseths",NA,NA,"live in high-rise buildings",0.95
0,2931,"implied_prevalence","psychological",22,"thups",NA,NA,"know how to open doors",0.96
0,2891,"implied_prevalence","diet",23,"javs",NA,NA,"eat grass",0.96
0,2594,"implied_prevalence","disease_self",24,"elleps",NA,NA,"have strange genetic mutations",0.97
0,2323,"implied_prevalence","psychological",25,"zorbs",NA,NA,"know when earthquakes are about to happen",0.95
0,2562,"implied_prevalence","behavior_aggressive",26,"glippets",NA,NA,"get in fights with other animals",0.97
0,2454,"implied_prevalence","behavior",27,"dunkels",NA,NA,"play with bottlecaps",0.98
0,2409,"implied_prevalence","disease_self",28,"blins",NA,NA,"get dandruff",0.98
0,2662,"implied_prevalence","habitat",29,"moxes",NA,NA,"live in the hulls of sea vessels",0.98
0,3070,"implied_prevalence","physical",30,"daiths",NA,NA,"live to be twenty years old",0.95
0,3994,"implied_prevalence","diet",31,"dorbs",NA,NA,"drink soda",0.95
0,3923,"implied_prevalence","behavior",32,"ludinos",NA,NA,"swim in shallow pools",0.95
0,2485,"implied_prevalence","disease_other",33,"grinks",NA,NA,"carry Lyme disease",0.98
0,2678,"implied_prevalence","reproduction",34,"kazzes",NA,NA,"lay eggs in other birds&quotechar nests",0.92
0,3515,"implied_prevalence","psychological",35,"krivels",NA,NA,"develop phobias",0.95
1,2608,"implied_prevalence","disease_other",1,"sapers",NA,NA,"transmit rabies",0.38
1,767,"implied_prevalence","disease_self",2,"plovs",NA,NA,"lose their teeth",0.52
1,119299,"implied_prevalence","behavior_aggressive",3,"wugs",NA,NA,"hunt other animals",0.38
1,69290,"implied_prevalence","disease_self",4,"frams",NA,NA,"go bald",0.32
1,13531,"implied_prevalence","physical",5,"zorbs",NA,NA,"live to be twenty years old",0.31
1,994,"implied_prevalence","psychological",6,"moxes",NA,NA,"know when earthquakes are about to happen",0.48
1,808,"implied_prevalence","diet",7,"stups",NA,NA,"eat garbage",0.38
1,789,"implied_prevalence","reproduction",8,"krivels",NA,NA,"attract mates by secreting pheromones",0.55
1,703,"implied_prevalence","physical",9,"elleps",NA,NA,"have intensely beautiful feathers",0.36
1,2166,"implied_prevalence","reproduction",10,"dobles",NA,NA,"give birth underwater",0.62
1,869,"implied_prevalence","behavior_aggressive",11,"thups",NA,NA,"get in fights with other animals",0.39
1,6009,"implied_prevalence","disease_other",12,"morseths",NA,NA,"carry Lyme disease",0.47
1,1454,"implied_prevalence","behavior_aggressive",13,"glippets",NA,NA,"pound their chests to display dominance",0.41
1,838,"implied_prevalence","physical",14,"grinks",NA,NA,"live to be five hundred years old",0.73
1,1178,"implied_prevalence","psychological",15,"mooks",NA,NA,"experience emotions",0.38
1,14518,"implied_prevalence","habitat",16,"dunkels",NA,NA,"live in zoos",0.26
1,837,"implied_prevalence","behavior",17,"kazzes",NA,NA,"sleep during the day",0.44
1,760,"implied_prevalence","diet",18,"fendles",NA,NA,"cannibalize each other",0.51
1,8736,"implied_prevalence","diet",19,"blins",NA,NA,"eat people",0.2
1,848,"implied_prevalence","behavior",20,"taifels",NA,NA,"ride the subway",0.49
1,722,"implied_prevalence","physical",21,"zoovs",NA,NA,"have very long wings",0.34
1,784,"implied_prevalence","behavior_aggressive",22,"lorches",NA,NA,"capture other animals&quotechar territory",0.45
1,1516,"implied_prevalence","behavior",23,"javs",NA,NA,"swim in shallow pools",0.27
1,933,"implied_prevalence","psychological",24,"dorbs",NA,NA,"mourn their dead",0.53
1,768,"implied_prevalence","behavior",25,"ludinos",NA,NA,"use tools",0.39
1,856,"implied_prevalence","reproduction",26,"ollers",NA,NA,"lay eggs without needing fertilization",0.53
1,37656,"implied_prevalence","physical",27,"reesles",NA,NA,"have spots",0.21
1,690,"implied_prevalence","behavior_aggressive",28,"cheebas",NA,NA,"attack hikers",0.52
1,1168,"implied_prevalence","disease_self",29,"luzaks",NA,NA,"get dandruff",0.41
1,627,"implied_prevalence","disease_self",30,"trufts",NA,NA,"have seizures",0.54
1,704,"implied_prevalence","reproduction",31,"daiths",NA,NA,"have a menstrual cycle",0.42
1,8372,"implied_prevalence","physical",32,"ackles",NA,NA,"live to be a hundred years old",0.4
1,681,"implied_prevalence","diet",33,"feps",NA,NA,"eat insects",0.49
1,713,"implied_prevalence","diet",34,"kweps",NA,NA,"eat grass",0.41
1,696,"implied_prevalence","psychological",35,"crullets",NA,NA,"develop phobias",0.52
1,5673,"explain_responses","physical",1,"elleps","No",0.36,"have intensely beautiful feathers",0.24
1,5781,"explain_responses","behavior",2,"ludinos","No",0.39,"use tools",0.11
1,4284,"explain_responses","reproduction",3,"daiths","no",0.42,"have a menstrual cycle",0.32
1,3541,"explain_responses","behavior",4,"kazzes","no",0.44,"sleep during the day",0.4
1,3562,"explain_responses","behavior_aggressive",5,"glippets","no",0.41,"pound their chests to display dominance",0.41
2,3135,"implied_prevalence","reproduction",1,"morseths",NA,NA,"attract mates by secreting pheromones",0.53
2,3958,"implied_prevalence","reproduction",2,"dorbs",NA,NA,"lay eggs in other birds&quotechar nests",0.3
2,1745,"implied_prevalence","habitat",3,"wugs",NA,NA,"live in trees",0.67
2,2448,"implied_prevalence","physical",4,"sapers",NA,NA,"have intensely beautiful feathers",0.56
2,5767,"implied_prevalence","reproduction",5,"dunkels",NA,NA,"lay eggs without needing fertilization",0.26
2,3033,"implied_prevalence","behavior_aggressive",6,"cheebas",NA,NA,"attack hikers",0.51
2,2335,"implied_prevalence","disease_self",7,"luzaks",NA,NA,"have strange genetic mutations",0.37
2,2576,"implied_prevalence","behavior",8,"moxes",NA,NA,"play with bottlecaps",0.34
2,1769,"implied_prevalence","disease_self",9,"kweps",NA,NA,"have seizures",0.28
2,1903,"implied_prevalence","behavior",10,"fendles",NA,NA,"like to cuddle",0.48
2,1880,"implied_prevalence","disease_other",11,"thups",NA,NA,"carry Lyme disease",0.76
2,2400,"implied_prevalence","behavior_aggressive",12,"ludinos",NA,NA,"get in fights with other animals",0.48
2,2137,"implied_prevalence","disease_other",13,"dobles",NA,NA,"carry malaria",0.51
2,2888,"implied_prevalence","psychological",14,"taifels",NA,NA,"have personalities",0.5
2,1671,"implied_prevalence","diet",15,"ackles",NA,NA,"eat grass",0.73
2,2112,"implied_prevalence","reproduction",16,"reesles",NA,NA,"have dozens of sexual partners",0.32
2,2103,"implied_prevalence","behavior",17,"zoovs",NA,NA,"fly into building windows",0.54
2,2615,"implied_prevalence","behavior",18,"feps",NA,NA,"swim in shallow pools",0.54
2,1889,"implied_prevalence","diet",19,"daiths",NA,NA,"eat human food",0.68
2,2062,"implied_prevalence","psychological",20,"kazzes",NA,NA,"are afraid of dogs",0.66
2,2344,"implied_prevalence","diet",21,"frams",NA,NA,"fish in the Hudson River",0.74
2,2057,"implied_prevalence","psychological",22,"stups",NA,NA,"develop phobias",0.27
2,2464,"implied_prevalence","behavior_aggressive",23,"javs",NA,NA,"capture other animals&quotechar territory",0.51
2,1711,"implied_prevalence","habitat",24,"glippets",NA,NA,"live in urban areas",0.73
2,2480,"implied_prevalence","psychological",25,"lorches",NA,NA,"know when earthquakes are about to happen",0.3
2,2287,"implied_prevalence","diet",26,"trufts",NA,NA,"feed on the carcasses of dead animals",0.71
2,2353,"implied_prevalence","disease_self",27,"elleps",NA,NA,"go bald",0.42
2,1975,"implied_prevalence","behavior",28,"plovs",NA,NA,"chase their tails",0.49
2,1873,"implied_prevalence","psychological",29,"blins",NA,NA,"are afraid of loud noises",0.73
2,2248,"implied_prevalence","behavior",30,"zorbs",NA,NA,"use tools",0.33
2,3222,"implied_prevalence","diet",31,"crullets",NA,NA,"eat cannabis",0.35
2,1712,"implied_prevalence","reproduction",32,"krivels",NA,NA,"get erections",0.24
2,2265,"implied_prevalence","reproduction",33,"mooks",NA,NA,"give birth underwater",0.54
2,1950,"implied_prevalence","physical",34,"grinks",NA,NA,"live to be five hundred years old",0.18
2,4551,"implied_prevalence","diet",35,"ollers",NA,NA,"eat insects",0.8
2,15174,"explain_responses","physical",1,"grinks","Because that&quotechars a long time to live. ",0.18,"live to be five hundred years old",0.18
2,29840,"explain_responses","behavior",2,"zorbs","some animals are smart enough to figure out tools. ",0.33,"use tools",0.33
2,10183,"explain_responses","diet",3,"crullets","It&quotechars a plant. ",0.35,"eat cannabis",0.35
2,10449,"explain_responses","reproduction",4,"reesles","Most mammals do?",0.32,"have dozens of sexual partners",0.53
2,14832,"explain_responses","disease_self",5,"kweps","Some animals have seizures.",0.28,"have seizures",0.28
3,6435,"implied_prevalence","diet",1,"moxes",NA,NA,"eat grass",0.51
3,4412,"implied_prevalence","reproduction",2,"luzaks",NA,NA,"attract mates by secreting pheromones",0.95
3,2675,"implied_prevalence","disease_self",3,"dunkels",NA,NA,"get cancer",0.52
3,5990,"implied_prevalence","disease_self",4,"sapers",NA,NA,"develop back problems",0.52
3,2467,"implied_prevalence","behavior_aggressive",5,"frams",NA,NA,"pound their chests to display dominance",1
3,2087,"implied_prevalence","psychological",6,"zorbs",NA,NA,"experience empathy",1
3,2560,"implied_prevalence","behavior",7,"ludinos",NA,NA,"sleep during the day",0.98
3,2419,"implied_prevalence","habitat",8,"mooks",NA,NA,"live in zoos",0.26
3,1970,"implied_prevalence","diet",9,"javs",NA,NA,"eat garbage",0.24
3,1639,"implied_prevalence","behavior_aggressive",10,"daiths",NA,NA,"steal farmers&quotechar crops",0.49
3,1713,"implied_prevalence","behavior",11,"feps",NA,NA,"sing beautiful songs",1
3,1843,"implied_prevalence","disease_other",12,"cheebas",NA,NA,"carry Lyme disease",1
3,1688,"implied_prevalence","habitat",13,"reesles",NA,NA,"live in urban areas",0.5
3,1649,"implied_prevalence","behavior_aggressive",14,"crullets",NA,NA,"attack hikers",0.51
3,1877,"implied_prevalence","diet",15,"ackles",NA,NA,"cannibalize each other",0.47
3,2441,"implied_prevalence","behavior_aggressive",16,"stups",NA,NA,"capture other animals&quotechar territory",1
3,1642,"implied_prevalence","physical",17,"trufts",NA,NA,"have four legs",1
3,1859,"implied_prevalence","diet",18,"krivels",NA,NA,"drink soda",0
3,3266,"implied_prevalence","disease_other",19,"kweps",NA,NA,"transmit rabies",0.85
3,2214,"implied_prevalence","behavior",20,"morseths",NA,NA,"chase their tails",1
3,1624,"implied_prevalence","behavior_aggressive",21,"dorbs",NA,NA,"hunt other animals",1
3,1562,"implied_prevalence","diet",22,"fendles",NA,NA,"eat insects",1
3,2355,"implied_prevalence","physical",23,"elleps",NA,NA,"live to be five hundred years old",0.55
3,2433,"implied_prevalence","behavior",24,"plovs",NA,NA,"fly into building windows",0.71
3,2184,"implied_prevalence","behavior",25,"dobles",NA,NA,"do handstands to scare off predators",1
3,3116,"implied_prevalence","psychological",26,"blins",NA,NA,"know when earthquakes are about to happen",0.64
3,1578,"implied_prevalence","psychological",27,"ollers",NA,NA,"have personalities",1
3,2015,"implied_prevalence","behavior",28,"lorches",NA,NA,"perform in the circus",0.56
3,2655,"implied_prevalence","psychological",29,"taifels",NA,NA,"are afraid of loud noises",1
3,2330,"implied_prevalence","reproduction",30,"grinks",NA,NA,"have dozens of sexual partners",1
3,1752,"implied_prevalence","reproduction",31,"glippets",NA,NA,"get erections",1
3,1906,"implied_prevalence","disease_self",32,"wugs",NA,NA,"lose their teeth",0.88
3,1626,"implied_prevalence","physical",33,"kazzes",NA,NA,"live to be twenty years old",0.89
3,1899,"implied_prevalence","behavior",34,"zoovs",NA,NA,"use tools",1
3,1868,"implied_prevalence","psychological",35,"thups",NA,NA,"know how to open doors",1
3,11961,"explain_responses","habitat",1,"mooks","not all are captured",0.26,"live in zoos",0.26
3,15658,"explain_responses","diet",2,"krivels","none drink soda because they don&quotechart live near humans?",0,"drink soda",0
3,6766,"explain_responses","behavior_aggressive",3,"daiths","not all live near farmers",0.49,"steal farmers&quotechar crops",0.49
3,7201,"explain_responses","diet",4,"ackles","not all eat each other",0.47,"cannibalize each other",0.47
3,6814,"explain_responses","diet",5,"javs","not all live near garbage",0.24,"eat garbage",0.24
4,11477,"implied_prevalence","habitat",1,"grinks",NA,NA,"live in urban areas",0.94
4,5678,"implied_prevalence","physical",2,"frams",NA,NA,"have spots",1
4,11110,"implied_prevalence","physical",3,"fendles",NA,NA,"live to be twenty years old",0.86
4,5927,"implied_prevalence","reproduction",4,"feps",NA,NA,"lay eggs without needing fertilization",1
4,9367,"implied_prevalence","behavior",5,"kweps",NA,NA,"play with bottlecaps",0.2
4,6318,"implied_prevalence","disease_other",6,"mooks",NA,NA,"carry malaria",0.02
4,4735,"implied_prevalence","diet",7,"moxes",NA,NA,"eat garbage",0.42
4,4064,"implied_prevalence","reproduction",8,"cheebas",NA,NA,"have a menstrual cycle",1
4,2840,"implied_prevalence","reproduction",9,"blins",NA,NA,"give birth underwater",1
4,5024,"implied_prevalence","behavior",10,"sapers",NA,NA,"like to cuddle",1
4,8263,"implied_prevalence","physical",11,"thups",NA,NA,"have intensely beautiful feathers",0.98
4,5447,"implied_prevalence","psychological",12,"kazzes",NA,NA,"know when earthquakes are about to happen",0.92
4,4403,"implied_prevalence","psychological",13,"dobles",NA,NA,"mourn their dead",0.98
4,5216,"implied_prevalence","diet",14,"lorches",NA,NA,"feed on the carcasses of dead animals",1
4,8173,"implied_prevalence","habitat",15,"zorbs",NA,NA,"live in high-rise buildings",0.86
4,9465,"implied_prevalence","physical",16,"crullets",NA,NA,"have very long wings",0.98
4,4129,"implied_prevalence","psychological",17,"luzaks",NA,NA,"are afraid of dogs",0.9
4,3604,"implied_prevalence","behavior_aggressive",18,"wugs",NA,NA,"pound their chests to display dominance",1
4,3975,"implied_prevalence","diet",19,"stups",NA,NA,"eat insects",1
4,5585,"implied_prevalence","behavior_aggressive",20,"elleps",NA,NA,"attack hikers",0.01
4,4904,"implied_prevalence","diet",21,"trufts",NA,NA,"eat human food",0.56
4,4420,"implied_prevalence","physical",22,"javs",NA,NA,"have an exquisite sense of smell",1
4,4217,"implied_prevalence","psychological",23,"morseths",NA,NA,"are afraid of loud noises",1
4,4271,"implied_prevalence","psychological",24,"daiths",NA,NA,"develop phobias",0.03
4,3798,"implied_prevalence","reproduction",25,"dorbs",NA,NA,"get erections",1
4,7465,"implied_prevalence","disease_self",26,"dunkels",NA,NA,"go bald",0.99
4,5949,"implied_prevalence","reproduction",27,"krivels",NA,NA,"lay eggs in other birds&quotechar nests",0.76
4,4238,"implied_prevalence","diet",28,"glippets",NA,NA,"drink soda",0.01
4,3487,"implied_prevalence","disease_self",29,"taifels",NA,NA,"have seizures",0.02
4,5334,"implied_prevalence","behavior_aggressive",30,"zoovs",NA,NA,"carry out premeditated murder",0.01
4,8070,"implied_prevalence","behavior",31,"reesles",NA,NA,"chase their tails",0.51
4,3983,"implied_prevalence","disease_self",32,"ludinos",NA,NA,"get addicted to nicotine",0.82
4,6406,"implied_prevalence","behavior",33,"ollers",NA,NA,"fly into building windows",0.01
4,5265,"implied_prevalence","diet",34,"ackles",NA,NA,"eat people",0.01
4,4927,"implied_prevalence","disease_other",35,"plovs",NA,NA,"transmit rabies",0.11
4,17584,"explain_responses","behavior_aggressive",1,"elleps","Only a small number attack in my opinion",0.01,"attack hikers",0.01
4,24524,"explain_responses","disease_self",2,"taifels","Humans have siezures as well, but only a small percentage of people",0.02,"have seizures",0.02
4,14042,"explain_responses","behavior",3,"ollers","all birds fly into windows, just not often",0.01,"fly into building windows",0.01
4,23173,"explain_responses","psychological",4,"daiths","I don&quotechart think a very large percentage of Daiths would develop a phobia",0.03,"develop phobias",0.03
4,23277,"explain_responses","behavior_aggressive",5,"zoovs","this is crazy, had to select one because someone told me that they do it",0.01,"carry out premeditated murder",0.01
5,16198,"implied_prevalence","behavior_aggressive",1,"sapers",NA,NA,"get in fights with other animals",0.79
5,6835,"implied_prevalence","disease_other",2,"morseths",NA,NA,"transmit rabies",0.33
5,9185,"implied_prevalence","reproduction",3,"thups",NA,NA,"give birth underwater",1
5,6737,"implied_prevalence","physical",4,"ollers",NA,NA,"have spots",0.85
5,11503,"implied_prevalence","behavior_aggressive",5,"ackles",NA,NA,"pound their chests to display dominance",1
5,6700,"implied_prevalence","diet",6,"taifels",NA,NA,"eat people",0.13
5,6428,"implied_prevalence","psychological",7,"javs",NA,NA,"know how to open doors",0.33
5,6636,"implied_prevalence","diet",8,"trufts",NA,NA,"eat garbage",0.75
5,7598,"implied_prevalence","disease_other",9,"krivels",NA,NA,"carry malaria",0.24
5,9569,"implied_prevalence","habitat",10,"cheebas",NA,NA,"live in high-rise buildings",0.4
5,6259,"implied_prevalence","behavior",11,"blins",NA,NA,"chase their tails",0.97
5,5945,"implied_prevalence","disease_self",12,"zorbs",NA,NA,"have seizures",0.27
5,7251,"implied_prevalence","physical",13,"glippets",NA,NA,"have intensely beautiful feathers",0.94
5,7092,"implied_prevalence","diet",14,"frams",NA,NA,"cannibalize each other",0.83
5,5460,"implied_prevalence","behavior_aggressive",15,"feps",NA,NA,"steal farmers&quotechar crops",0.67
5,10040,"implied_prevalence","reproduction",16,"dobles",NA,NA,"have a menstrual cycle",0.49
5,5817,"implied_prevalence","behavior",17,"crullets",NA,NA,"ride the subway",0.49
5,7893,"implied_prevalence","behavior",18,"daiths",NA,NA,"do handstands to scare off predators",1
5,6054,"implied_prevalence","disease_self",19,"grinks",NA,NA,"get dandruff",0.53
5,5003,"implied_prevalence","behavior_aggressive",20,"mooks",NA,NA,"torture other animals",0.68
5,6618,"implied_prevalence","reproduction",21,"kweps",NA,NA,"lay eggs in other birds&quotechar nests",0.99
5,4429,"implied_prevalence","behavior",22,"elleps",NA,NA,"sing beautiful songs",0.97
5,5135,"implied_prevalence","psychological",23,"dorbs",NA,NA,"develop phobias",0.27
5,7165,"implied_prevalence","diet",24,"moxes",NA,NA,"fish in the Hudson River",0.17
5,4530,"implied_prevalence","disease_self",25,"fendles",NA,NA,"develop back problems",0.25
5,5831,"implied_prevalence","physical",26,"wugs",NA,NA,"have very long wings",0.97
5,3996,"implied_prevalence","diet",27,"stups",NA,NA,"eat candy wrappers",0.27
5,4182,"implied_prevalence","habitat",28,"zoovs",NA,NA,"live in trees",0.99
5,6707,"implied_prevalence","diet",29,"reesles",NA,NA,"eat human food",0.18
5,6364,"implied_prevalence","behavior_aggressive",30,"plovs",NA,NA,"hunt other animals",1
5,4349,"implied_prevalence","physical",31,"lorches",NA,NA,"have brown fur",0.79
5,6078,"implied_prevalence","behavior",32,"luzaks",NA,NA,"play with bottlecaps",0.25
5,7223,"implied_prevalence","psychological",33,"kazzes",NA,NA,"experience empathy",0.98
5,5616,"implied_prevalence","habitat",34,"dunkels",NA,NA,"live in zoos",0.15
5,5218,"implied_prevalence","behavior",35,"ludinos",NA,NA,"perform in the circus",0.08
5,51816,"explain_responses","diet",1,"moxes","The hudson is on a small body compared to the world. I don&quotechart know the population of Moxes",0.17,"fish in the Hudson River",0.17
5,29193,"explain_responses","psychological",2,"javs","Trying to think of the amount of them that have been given the opportunity. ",0.33,"know how to open doors",0.33
5,43907,"explain_responses","behavior",3,"luzaks","I can&quotechart tell the population of how many can do it or do it if they haven&quotechart had the option to. ",0.25,"play with bottlecaps",0.14
5,63770,"explain_responses","habitat",4,"cheebas","I don&quotechart know what a Cheeba is so I can not no the amount that live in high rises I can only assume it is a pet.",0.4,"live in high-rise buildings",0.14
5,48656,"explain_responses","diet",5,"stups","They could all eat them but what percentage of them have, I guess they all can. ",0.27,"eat candy wrappers",0.27
6,8781,"implied_prevalence","behavior",1,"wugs",NA,NA,"do handstands to scare off predators",0.75
6,11127,"implied_prevalence","disease_self",2,"dorbs",NA,NA,"get cancer",0.28
6,3637,"implied_prevalence","behavior",3,"plovs",NA,NA,"perform in the circus",0.82
6,3879,"implied_prevalence","diet",4,"kweps",NA,NA,"eat cannabis",0.51
6,3839,"implied_prevalence","physical",5,"zorbs",NA,NA,"have brown fur",1
6,3209,"implied_prevalence","disease_self",6,"lorches",NA,NA,"go bald",0.95
6,3643,"implied_prevalence","psychological",7,"ludinos",NA,NA,"know how to ride bicycles",0.8
6,2768,"implied_prevalence","diet",8,"reesles",NA,NA,"eat grass",0.84
6,7343,"implied_prevalence","behavior",9,"blins",NA,NA,"chase their tails",0.58
6,1644,"implied_prevalence","behavior_aggressive",10,"glippets",NA,NA,"steal farmers&quotechar crops",0.38
6,2448,"implied_prevalence","physical",11,"ackles",NA,NA,"have intensely beautiful feathers",0.64
6,3935,"implied_prevalence","diet",12,"sapers",NA,NA,"fish in the Hudson River",0.8
6,3112,"implied_prevalence","reproduction",13,"daiths",NA,NA,"lay eggs without needing fertilization",1
6,3135,"implied_prevalence","disease_self",14,"javs",NA,NA,"get addicted to nicotine",0.5
6,3323,"implied_prevalence","diet",15,"feps",NA,NA,"eat people",1
6,4960,"implied_prevalence","physical",16,"morseths",NA,NA,"live to be a hundred years old",0.77
6,2501,"implied_prevalence","physical",17,"frams",NA,NA,"have very long wings",0.93
6,2718,"implied_prevalence","behavior_aggressive",18,"kazzes",NA,NA,"pound their chests to display dominance",0.75
6,908,"implied_prevalence","disease_other",19,"zoovs",NA,NA,"transmit rabies",0.54
6,1204,"implied_prevalence","psychological",20,"fendles",NA,NA,"are intelligent",0.41
6,1126,"implied_prevalence","reproduction",21,"mooks",NA,NA,"give birth underwater",0.75
6,845,"implied_prevalence","diet",22,"dobles",NA,NA,"cannibalize each other",0.73
6,849,"implied_prevalence","diet",23,"trufts",NA,NA,"eat human food",0.75
6,9861,"implied_prevalence","reproduction",24,"ollers",NA,NA,"lay eggs in other birds&quotechar nests",0.62
6,1545,"implied_prevalence","physical",25,"krivels",NA,NA,"live to be twenty years old",0.48
6,1343,"implied_prevalence","disease_other",26,"dunkels",NA,NA,"transmit HIV",0.74
6,1529,"implied_prevalence","behavior_aggressive",27,"taifels",NA,NA,"carry out premeditated murder",0.79
6,3536,"implied_prevalence","behavior_aggressive",28,"luzaks",NA,NA,"torture other animals",0.91
6,3366,"implied_prevalence","disease_other",29,"moxes",NA,NA,"carry malaria",0.39
6,1564,"implied_prevalence","behavior_aggressive",30,"crullets",NA,NA,"attack hikers",0.5
6,2743,"implied_prevalence","behavior",31,"thups",NA,NA,"use tools",0.67
6,2752,"implied_prevalence","habitat",32,"elleps",NA,NA,"live in the hulls of sea vessels",0.74
6,45200,"implied_prevalence","diet",33,"grinks",NA,NA,"drink soda",0.74
6,2341,"implied_prevalence","habitat",34,"cheebas",NA,NA,"live in zoos",0.76
6,3215,"implied_prevalence","behavior_aggressive",35,"stups",NA,NA,"get in fights with other animals",0.56
6,21787,"explain_responses","physical",1,"krivels","20 is a low number",0.48,"live to be twenty years old",0.5
6,18255,"explain_responses","psychological",2,"fendles","I find it hard to believe that they all would be intelligent ",0.41,"are intelligent",0.51
6,19347,"explain_responses","behavior_aggressive",3,"glippets","38% is a high number",0.38,"steal farmers&quotechar crops",0.38
6,13627,"explain_responses","disease_self",4,"dorbs","everyone can&quotechart get cancer",0.28,"get cancer",0.28
6,23664,"explain_responses","disease_other",5,"moxes","every moxe wont carry the disease ",0.39,"carry malaria",0.39
7,6310,"implied_prevalence","diet",1,"thups",NA,NA,"eat garbage",0.58
7,3480,"implied_prevalence","psychological",2,"lorches",NA,NA,"experience emotions",0.39
7,1543,"implied_prevalence","psychological",3,"cheebas",NA,NA,"are intelligent",0.36
7,2536,"implied_prevalence","physical",4,"kazzes",NA,NA,"have very long wings",0.85
7,1480,"implied_prevalence","physical",5,"javs",NA,NA,"have brown fur",0.71
7,1849,"implied_prevalence","behavior",6,"fendles",NA,NA,"use tools",0.5
7,1711,"implied_prevalence","diet",7,"wugs",NA,NA,"drink soda",0.39
7,1680,"implied_prevalence","psychological",8,"stups",NA,NA,"know how to ride bicycles",0.6
7,856,"implied_prevalence","reproduction",9,"sapers",NA,NA,"attract mates by secreting pheromones",0.55
7,880,"implied_prevalence","disease_self",10,"moxes",NA,NA,"go bald",0.59
7,1295,"implied_prevalence","behavior_aggressive",11,"ollers",NA,NA,"steal farmers&quotechar crops",0.63
7,1199,"implied_prevalence","diet",12,"zorbs",NA,NA,"feed on the carcasses of dead animals",0.51
7,1184,"implied_prevalence","behavior",13,"elleps",NA,NA,"fly into building windows",0.66
7,1279,"implied_prevalence","behavior_aggressive",14,"ackles",NA,NA,"attack hikers",0.55
7,1328,"implied_prevalence","behavior",15,"blins",NA,NA,"sing beautiful songs",0.72
7,1543,"implied_prevalence","disease_self",16,"kweps",NA,NA,"lose their teeth",0.72
7,1672,"implied_prevalence","behavior_aggressive",17,"crullets",NA,NA,"torture other animals",0.41
7,1561,"implied_prevalence","habitat",18,"krivels",NA,NA,"live in trees",0.58
7,2120,"implied_prevalence","behavior",19,"dunkels",NA,NA,"do handstands to scare off predators",0.43
7,2336,"implied_prevalence","behavior_aggressive",20,"plovs",NA,NA,"carry out premeditated murder",0.31
7,2647,"implied_prevalence","psychological",21,"feps",NA,NA,"know when earthquakes are about to happen",0.63
7,1681,"implied_prevalence","disease_self",22,"luzaks",NA,NA,"have seizures",0.42
7,1239,"implied_prevalence","behavior",23,"dobles",NA,NA,"swim in shallow pools",0.5
7,665,"implied_prevalence","disease_self",24,"glippets",NA,NA,"develop back problems",0.61
7,696,"implied_prevalence","physical",25,"daiths",NA,NA,"live to be five hundred years old",0.54
7,928,"implied_prevalence","psychological",26,"taifels",NA,NA,"develop phobias",0.65
7,1248,"implied_prevalence","reproduction",27,"morseths",NA,NA,"give birth underwater",0.59
7,1511,"implied_prevalence","habitat",28,"dorbs",NA,NA,"live in urban areas",0.66
7,2072,"implied_prevalence","diet",29,"trufts",NA,NA,"eat grass",0.89
7,1016,"implied_prevalence","disease_self",30,"reesles",NA,NA,"get dandruff",0.56
7,1112,"implied_prevalence","diet",31,"grinks",NA,NA,"eat people",0.7
7,1096,"implied_prevalence","reproduction",32,"frams",NA,NA,"lay eggs in other birds&quotechar nests",0.56
7,1456,"implied_prevalence","behavior",33,"mooks",NA,NA,"ride the subway",0.36
7,767,"implied_prevalence","reproduction",34,"ludinos",NA,NA,"get erections",0.64
7,2279,"implied_prevalence","physical",35,"zoovs",NA,NA,"live to be a hundred years old",0.44
7,7726,"explain_responses","psychological",1,"lorches","Some might not",0.39,"experience emotions",0.26
7,8224,"explain_responses","behavior",2,"dunkels","They don&quotechart all do it",0.43,"do handstands to scare off predators",0.42
7,7528,"explain_responses","disease_self",3,"luzaks","Some avoid them",0.42,"have seizures",0.39
7,10168,"explain_responses","behavior_aggressive",4,"plovs","Not all do",0.31,"carry out premeditated murder",0.29
7,12247,"explain_responses","behavior",5,"mooks","Some live in places without subways",0.36,"ride the subway",0.33
8,9006,"implied_prevalence","behavior",1,"ackles",NA,NA,"fly into building windows",0.9
8,7040,"implied_prevalence","behavior_aggressive",2,"thups",NA,NA,"pound their chests to display dominance",0.66
8,9150,"implied_prevalence","disease_other",3,"javs",NA,NA,"carry malaria",0.79
8,6128,"implied_prevalence","diet",4,"cheebas",NA,NA,"drink soda",0.85
8,4768,"implied_prevalence","psychological",5,"glippets",NA,NA,"experience empathy",0.68
8,2600,"implied_prevalence","behavior",6,"frams",NA,NA,"chase their tails",0.76
8,10016,"implied_prevalence","reproduction",7,"zoovs",NA,NA,"lay eggs without needing fertilization",0.85
8,4312,"implied_prevalence","diet",8,"moxes",NA,NA,"eat cannabis",0.8
8,12904,"implied_prevalence","behavior",9,"dunkels",NA,NA,"play with bottlecaps",0.83
8,4424,"implied_prevalence","disease_other",10,"dorbs",NA,NA,"transmit HIV",0.82
8,9344,"implied_prevalence","behavior_aggressive",11,"feps",NA,NA,"capture other animals&quotechar territory",0.75
8,2350,"implied_prevalence","reproduction",12,"sapers",NA,NA,"lay eggs in other birds&quotechar nests",0.62
8,1954,"implied_prevalence","psychological",13,"elleps",NA,NA,"develop phobias",0.68
8,2623,"implied_prevalence","behavior",14,"trufts",NA,NA,"perform in the circus",0.72
8,2160,"implied_prevalence","behavior",15,"ludinos",NA,NA,"sleep during the day",0.65
8,5664,"implied_prevalence","behavior_aggressive",16,"morseths",NA,NA,"torture other animals",0.61
8,3016,"implied_prevalence","disease_other",17,"lorches",NA,NA,"transmit rabies",0.76
8,4466,"implied_prevalence","physical",18,"kweps",NA,NA,"live to be a hundred years old",0.67
8,5198,"implied_prevalence","behavior_aggressive",19,"grinks",NA,NA,"hunt other animals",0.79
8,3800,"implied_prevalence","disease_self",20,"fendles",NA,NA,"have seizures",0.83
8,2689,"implied_prevalence","disease_self",21,"ollers",NA,NA,"develop back problems",0.71
8,3816,"implied_prevalence","behavior_aggressive",22,"crullets",NA,NA,"attack hikers",0.69
8,3447,"implied_prevalence","habitat",23,"zorbs",NA,NA,"live in zoos",0.75
8,3703,"implied_prevalence","reproduction",24,"blins",NA,NA,"attract mates by secreting pheromones",0.77
8,4913,"implied_prevalence","reproduction",25,"kazzes",NA,NA,"have dozens of sexual partners",0.7
8,2246,"implied_prevalence","behavior",26,"mooks",NA,NA,"ride the subway",0.72
8,5080,"implied_prevalence","reproduction",27,"krivels",NA,NA,"have a menstrual cycle",0.62
8,7311,"implied_prevalence","physical",28,"daiths",NA,NA,"have intensely beautiful feathers",0.7
8,15922,"implied_prevalence","habitat",29,"luzaks",NA,NA,"live in trees",0.68
8,6008,"implied_prevalence","disease_self",30,"wugs",NA,NA,"get dandruff",0.63
8,9649,"implied_prevalence","diet",31,"plovs",NA,NA,"eat insects",0.74
8,3182,"implied_prevalence","psychological",32,"reesles",NA,NA,"are afraid of loud noises",0.8
8,2529,"implied_prevalence","physical",33,"taifels",NA,NA,"have an exquisite sense of smell",0.79
8,2288,"implied_prevalence","physical",34,"stups",NA,NA,"have four legs",0.66
8,2112,"implied_prevalence","diet",35,"dobles",NA,NA,"drink alcohol left behind by tourists",0.78
9,3559,"implied_prevalence","behavior",1,"elleps",NA,NA,"play with bottlecaps",0.36
9,2811,"implied_prevalence","reproduction",2,"morseths",NA,NA,"attract mates by secreting pheromones",0.65
9,2272,"implied_prevalence","disease_self",3,"taifels",NA,NA,"have seizures",0.28
9,1862,"implied_prevalence","habitat",4,"fendles",NA,NA,"live in zoos",0.21
9,1588,"implied_prevalence","diet",5,"ackles",NA,NA,"eat garbage",0.26
9,2395,"implied_prevalence","disease_self",6,"wugs",NA,NA,"have strange genetic mutations",0.6
9,2264,"implied_prevalence","behavior",7,"feps",NA,NA,"chase their tails",0.51
9,2240,"implied_prevalence","diet",8,"dobles",NA,NA,"eat human food",0.44
9,1800,"implied_prevalence","habitat",9,"moxes",NA,NA,"live in urban areas",0.58
9,2230,"implied_prevalence","reproduction",10,"reesles",NA,NA,"give birth underwater",0.49
9,3906,"implied_prevalence","reproduction",11,"ollers",NA,NA,"get erections",0.5
9,2280,"implied_prevalence","diet",12,"kazzes",NA,NA,"drink alcohol left behind by tourists",0.57
9,2005,"implied_prevalence","psychological",13,"javs",NA,NA,"are intelligent",0.53
9,1625,"implied_prevalence","psychological",14,"lorches",NA,NA,"experience emotions",0.59
9,4112,"implied_prevalence","behavior",15,"zorbs",NA,NA,"sing beautiful songs",0.5
9,3173,"implied_prevalence","physical",16,"plovs",NA,NA,"have spots",0.6
9,1706,"implied_prevalence","behavior_aggressive",17,"daiths",NA,NA,"pound their chests to display dominance",0.4
9,4392,"implied_prevalence","disease_other",18,"ludinos",NA,NA,"carry malaria",0.48
9,4772,"implied_prevalence","disease_self",19,"dorbs",NA,NA,"lose their teeth",1
9,2285,"implied_prevalence","reproduction",20,"stups",NA,NA,"have a menstrual cycle",0.5
9,3200,"implied_prevalence","physical",21,"krivels",NA,NA,"have very long wings",0.5
9,2216,"implied_prevalence","behavior",22,"cheebas",NA,NA,"like to cuddle",0.68
9,2295,"implied_prevalence","disease_other",23,"crullets",NA,NA,"transmit HIV",0
9,2231,"implied_prevalence","habitat",24,"grinks",NA,NA,"live in trees",0.68
9,2491,"implied_prevalence","disease_self",25,"glippets",NA,NA,"get dandruff",1
9,3089,"implied_prevalence","behavior",26,"sapers",NA,NA,"do handstands to scare off predators",1
9,2986,"implied_prevalence","physical",27,"mooks",NA,NA,"live to be twenty years old",0.73
9,2326,"implied_prevalence","behavior",28,"luzaks",NA,NA,"swim in shallow pools",0.79
9,2869,"implied_prevalence","psychological",29,"thups",NA,NA,"know how to open doors",0.55
9,1853,"implied_prevalence","behavior_aggressive",30,"zoovs",NA,NA,"capture other animals&quotechar territory",0.49
9,3065,"implied_prevalence","disease_self",31,"blins",NA,NA,"get addicted to nicotine",0.73
9,2615,"implied_prevalence","behavior_aggressive",32,"kweps",NA,NA,"hunt other animals",1
9,2018,"implied_prevalence","behavior",33,"dunkels",NA,NA,"perform in the circus",0.27
9,1808,"implied_prevalence","diet",34,"trufts",NA,NA,"eat cannabis",0.35
9,1494,"implied_prevalence","behavior",35,"frams",NA,NA,"use tools",0.4
9,20779,"explain_responses","diet",1,"ackles","They can forage for food but humans give most with garbage",0.26,"eat garbage",0.26
9,13526,"explain_responses","diet",2,"dobles","Food left out by animals gets eaten but they can hunt",0.44,"eat human food",0.44
9,18086,"explain_responses","behavior_aggressive",3,"zoovs","They&quotecharre not intruders most of the time",0.49,"capture other animals&quotechar territory",0.49
9,20282,"explain_responses","reproduction",4,"reesles","Only females give birth so half is true",0.49,"give birth underwater",0.49
9,24997,"explain_responses","disease_self",5,"taifels","Animals can get seizures but they should have adapted so its not so common",0.28,"have seizures",0.28
10,8386,"implied_prevalence","diet",1,"stups",NA,NA,"feed on the carcasses of dead animals",0.4
10,1251,"implied_prevalence","physical",2,"sapers",NA,NA,"have intensely beautiful feathers",0.27
10,1229,"implied_prevalence","habitat",3,"thups",NA,NA,"live in trees",0.59
10,968,"implied_prevalence","diet",4,"frams",NA,NA,"eat candy wrappers",0.28
10,672,"implied_prevalence","behavior",5,"lorches",NA,NA,"fly into building windows",0.61
10,1038,"implied_prevalence","behavior",6,"glippets",NA,NA,"sleep during the day",0.53
10,1166,"implied_prevalence","physical",7,"daiths",NA,NA,"have brown fur",0.67
10,699,"implied_prevalence","psychological",8,"mooks",NA,NA,"mourn their dead",0.3
10,1371,"implied_prevalence","behavior",9,"cheebas",NA,NA,"play with bottlecaps",0.7
10,608,"implied_prevalence","physical",10,"javs",NA,NA,"live to be a hundred years old",0.42
10,660,"implied_prevalence","disease_self",11,"luzaks",NA,NA,"go bald",0.65
10,639,"implied_prevalence","disease_self",12,"blins",NA,NA,"develop back problems",0.34
10,743,"implied_prevalence","psychological",13,"reesles",NA,NA,"experience empathy",0.76
10,725,"implied_prevalence","physical",14,"crullets",NA,NA,"live to be twenty years old",0.39
10,600,"implied_prevalence","diet",15,"zorbs",NA,NA,"fish in the Hudson River",0.71
10,594,"implied_prevalence","physical",16,"feps",NA,NA,"have an exquisite sense of smell",0.3
10,969,"implied_prevalence","behavior_aggressive",17,"morseths",NA,NA,"steal farmers&quotechar crops",0.7
10,743,"implied_prevalence","psychological",18,"zoovs",NA,NA,"are afraid of loud noises",0.83
10,645,"implied_prevalence","reproduction",19,"grinks",NA,NA,"have a menstrual cycle",0.44
10,1118,"implied_prevalence","psychological",20,"elleps",NA,NA,"know when earthquakes are about to happen",0.79
10,785,"implied_prevalence","behavior_aggressive",21,"dorbs",NA,NA,"hunt other animals",0.31
10,636,"implied_prevalence","physical",22,"dobles",NA,NA,"have spots",0.73
10,1158,"implied_prevalence","habitat",23,"kweps",NA,NA,"live in the hulls of sea vessels",0.55
10,1124,"implied_prevalence","behavior_aggressive",24,"kazzes",NA,NA,"get in fights with other animals",0.68
10,804,"implied_prevalence","diet",25,"krivels",NA,NA,"eat human food",0.28
10,818,"implied_prevalence","behavior_aggressive",26,"ackles",NA,NA,"torture other animals",0.72
10,630,"implied_prevalence","behavior",27,"taifels",NA,NA,"ride the subway",0.36
10,690,"implied_prevalence","disease_other",28,"ollers",NA,NA,"transmit HIV",0.76
10,689,"implied_prevalence","psychological",29,"wugs",NA,NA,"have personalities",0.35
10,953,"implied_prevalence","psychological",30,"dunkels",NA,NA,"develop phobias",0.82
10,524,"implied_prevalence","disease_self",31,"moxes",NA,NA,"get dandruff",0.63
10,653,"implied_prevalence","diet",32,"trufts",NA,NA,"cannibalize each other",0.58
10,776,"implied_prevalence","reproduction",33,"plovs",NA,NA,"lay eggs without needing fertilization",0.35
10,1014,"implied_prevalence","diet",34,"ludinos",NA,NA,"eat cannabis",0.66
10,668,"implied_prevalence","diet",35,"fendles",NA,NA,"eat insects",0.75
10,22027,"explain_responses","diet",1,"krivels","They can also eat other food",0.28,"eat human food",0.35
10,19404,"explain_responses","behavior_aggressive",2,"dorbs","they also do other things ",0.31,"hunt other animals",0.31
10,14258,"explain_responses","behavior",3,"taifels","They can ride other things",0.36,"ride the subway",0.36
10,17727,"explain_responses","physical",4,"crullets","Not every crullets lives to be 20 years old",0.39,"live to be twenty years old",0.39
10,22288,"explain_responses","physical",5,"sapers","Some of them doesn&quotechart have beautiful feathers ",0.27,"have intensely beautiful feathers",0.27
11,9095,"implied_prevalence","behavior",1,"ackles",NA,NA,"use tools",1
11,5079,"implied_prevalence","habitat",2,"zorbs",NA,NA,"live in trees",1
11,4983,"implied_prevalence","behavior_aggressive",3,"frams",NA,NA,"hunt other animals",1
11,5187,"implied_prevalence","behavior",4,"lorches",NA,NA,"do handstands to scare off predators",1
11,4835,"implied_prevalence","reproduction",5,"luzaks",NA,NA,"have a menstrual cycle",0.5
11,2843,"implied_prevalence","psychological",6,"zoovs",NA,NA,"experience emotions",1
11,15874,"implied_prevalence","physical",7,"mooks",NA,NA,"have an exquisite sense of smell",0.98
11,6384,"implied_prevalence","behavior",8,"blins",NA,NA,"perform in the circus",0.19
11,3447,"implied_prevalence","reproduction",9,"morseths",NA,NA,"get erections",0.49
11,4608,"implied_prevalence","reproduction",10,"ollers",NA,NA,"attract mates by secreting pheromones",0.72
11,3842,"implied_prevalence","diet",11,"daiths",NA,NA,"eat human food",0.72
11,2998,"implied_prevalence","behavior",12,"dobles",NA,NA,"ride the subway",0.22
11,3246,"implied_prevalence","diet",13,"grinks",NA,NA,"eat cannabis",0.99
11,3764,"implied_prevalence","habitat",14,"taifels",NA,NA,"live in high-rise buildings",0.33
11,3093,"implied_prevalence","disease_self",15,"feps",NA,NA,"get dandruff",0.38
11,6814,"implied_prevalence","reproduction",16,"moxes",NA,NA,"lay eggs in other birds&quotechar nests",0.51
11,4430,"implied_prevalence","behavior_aggressive",17,"stups",NA,NA,"attack hikers",0.22
11,2686,"implied_prevalence","behavior_aggressive",18,"elleps",NA,NA,"carry out premeditated murder",0.19
11,3446,"implied_prevalence","reproduction",19,"dunkels",NA,NA,"give birth underwater",0.09
11,3850,"implied_prevalence","disease_self",20,"cheebas",NA,NA,"get cancer",0.61
11,3443,"implied_prevalence","physical",21,"dorbs",NA,NA,"live to be a hundred years old",0.98
11,3995,"implied_prevalence","diet",22,"wugs",NA,NA,"feed on the carcasses of dead animals",0.98
11,3249,"implied_prevalence","disease_self",23,"sapers",NA,NA,"have seizures",0.51
11,2603,"implied_prevalence","disease_self",24,"krivels",NA,NA,"get addicted to nicotine",0.49
11,2746,"implied_prevalence","habitat",25,"ludinos",NA,NA,"live in urban areas",0.33
11,2866,"implied_prevalence","disease_self",26,"plovs",NA,NA,"lose their teeth",0.97
11,2340,"implied_prevalence","behavior",27,"kazzes",NA,NA,"like to cuddle",0.99
11,2532,"implied_prevalence","disease_self",28,"thups",NA,NA,"develop back problems",0.99
11,3550,"implied_prevalence","physical",29,"reesles",NA,NA,"have brown fur",0.76
11,3408,"implied_prevalence","physical",30,"crullets",NA,NA,"live to be twenty years old",0.98
11,6250,"implied_prevalence","behavior_aggressive",31,"javs",NA,NA,"pound their chests to display dominance",0.55
11,5672,"implied_prevalence","reproduction",32,"glippets",NA,NA,"lay eggs without needing fertilization",0.49
11,3326,"implied_prevalence","diet",33,"kweps",NA,NA,"eat candy wrappers",0.3
11,4671,"implied_prevalence","disease_self",34,"fendles",NA,NA,"go bald",0.99
11,2432,"implied_prevalence","behavior_aggressive",35,"trufts",NA,NA,"get in fights with other animals",0.82
11,29287,"explain_responses","habitat",1,"ludinos","There are other types of areas for them to live in",0.33,"live in urban areas",0.33
11,33686,"explain_responses","reproduction",2,"dunkels","I don&quotechart know if dunkels even live in water. Maybe some of them are just accidentally in water when they give birth.",0.09,"give birth underwater",0.09
11,16797,"explain_responses","behavior",3,"dobles","I&quotecharm sure that they also use other modes of transportation",0.22,"ride the subway",0.22
11,10259,"explain_responses","behavior",4,"blins","But ALL of them?",0.19,"perform in the circus",0.19
11,38049,"explain_responses","behavior_aggressive",5,"elleps","Are they really all cold-blooded murderers?",0.19,"carry out premeditated murder",0.19
12,4270,"implied_prevalence","reproduction",1,"javs",NA,NA,"get erections",0.64
12,2512,"implied_prevalence","reproduction",2,"cheebas",NA,NA,"give birth underwater",0.8
12,11576,"implied_prevalence","habitat",3,"morseths",NA,NA,"live in the hulls of sea vessels",0.41
12,1768,"implied_prevalence","diet",4,"trufts",NA,NA,"eat garbage",0.72
12,3066,"implied_prevalence","disease_self",5,"grinks",NA,NA,"get addicted to nicotine",0.67
12,2390,"implied_prevalence","reproduction",6,"krivels",NA,NA,"have a menstrual cycle",0.32
12,9142,"implied_prevalence","psychological",7,"moxes",NA,NA,"know how to ride bicycles",0.2
12,4614,"implied_prevalence","physical",8,"ackles",NA,NA,"have intensely beautiful feathers",1
12,4782,"implied_prevalence","disease_self",9,"reesles",NA,NA,"have seizures",0.64
12,5772,"implied_prevalence","behavior",10,"sapers",NA,NA,"sing beautiful songs",0.58
12,22454,"implied_prevalence","behavior_aggressive",11,"ollers",NA,NA,"capture other animals&quotechar territory",0.61
12,7886,"implied_prevalence","reproduction",12,"taifels",NA,NA,"attract mates by secreting pheromones",0.56
12,6154,"implied_prevalence","physical",13,"stups",NA,NA,"live to be a hundred years old",0.72
12,2510,"implied_prevalence","habitat",14,"blins",NA,NA,"live in trees",1
12,201990,"implied_prevalence","reproduction",15,"zorbs",NA,NA,"lay eggs without needing fertilization",0.58
12,14504,"implied_prevalence","diet",16,"luzaks",NA,NA,"eat candy wrappers",0.77
12,9926,"implied_prevalence","diet",17,"plovs",NA,NA,"feed on the carcasses of dead animals",0.5
12,7494,"implied_prevalence","behavior_aggressive",18,"dobles",NA,NA,"carry out premeditated murder",0.43
12,2924,"implied_prevalence","diet",19,"kweps",NA,NA,"drink alcohol left behind by tourists",0.65
12,3922,"implied_prevalence","disease_self",20,"kazzes",NA,NA,"get dandruff",0.81
12,3058,"implied_prevalence","behavior",21,"ludinos",NA,NA,"play with bottlecaps",0.65
12,3616,"implied_prevalence","psychological",22,"zoovs",NA,NA,"are afraid of dogs",0.82
12,3952,"implied_prevalence","diet",23,"crullets",NA,NA,"eat cannabis",0.66
12,12518,"implied_prevalence","behavior",24,"mooks",NA,NA,"swim in shallow pools",0.66
12,7232,"implied_prevalence","psychological",25,"dorbs",NA,NA,"have personalities",0.69
12,17610,"implied_prevalence","habitat",26,"glippets",NA,NA,"live in urban areas",0.75
12,11544,"implied_prevalence","reproduction",27,"feps",NA,NA,"have dozens of sexual partners",0.58
12,13266,"implied_prevalence","diet",28,"daiths",NA,NA,"eat grass",0.67
12,5324,"implied_prevalence","physical",29,"elleps",NA,NA,"have an exquisite sense of smell",0.64
12,3078,"implied_prevalence","disease_other",30,"wugs",NA,NA,"carry malaria",0.74
12,46328,"implied_prevalence","diet",31,"fendles",NA,NA,"fish in the Hudson River",0.6
12,3386,"implied_prevalence","psychological",32,"frams",NA,NA,"mourn their dead",1
12,2592,"implied_prevalence","disease_self",33,"lorches",NA,NA,"go bald",1
12,1984,"implied_prevalence","diet",34,"dunkels",NA,NA,"eat people",1
12,1786,"implied_prevalence","psychological",35,"thups",NA,NA,"know how to open doors",0.54
12,21858,"explain_responses","behavior_aggressive",1,"dobles","murder seems like a lot so i didnt want to make it too hard",0.43,"carry out premeditated murder",0.43
12,10806,"explain_responses","reproduction",2,"krivels","not all are females",0.32,"have a menstrual cycle",0.32
12,10580,"explain_responses","psychological",3,"moxes","not all have access to one",0.2,"know how to ride bicycles",0.2
12,18598,"explain_responses","habitat",4,"morseths","some do not have access to a sea vessel",0.41,"live in the hulls of sea vessels",0.41
13,10940,"implied_prevalence","behavior",1,"elleps",NA,NA,"fly into building windows",1
13,4487,"implied_prevalence","behavior_aggressive",2,"morseths",NA,NA,"pound their chests to display dominance",1
13,2954,"implied_prevalence","behavior",3,"reesles",NA,NA,"sleep during the day",1
13,2513,"implied_prevalence","physical",4,"grinks",NA,NA,"have an exquisite sense of smell",1
13,4398,"implied_prevalence","reproduction",5,"sapers",NA,NA,"lay eggs without needing fertilization",1
13,2361,"implied_prevalence","disease_other",6,"wugs",NA,NA,"transmit HIV",1
13,1697,"implied_prevalence","disease_self",7,"luzaks",NA,NA,"lose their teeth",1
13,2221,"implied_prevalence","reproduction",8,"fendles",NA,NA,"have dozens of sexual partners",1
13,2313,"implied_prevalence","psychological",9,"zorbs",NA,NA,"know how to open doors",1
13,1967,"implied_prevalence","disease_self",10,"blins",NA,NA,"have seizures",1
13,1826,"implied_prevalence","behavior",11,"ludinos",NA,NA,"ride the subway",1
13,1968,"implied_prevalence","psychological",12,"thups",NA,NA,"experience emotions",1
13,1463,"implied_prevalence","physical",13,"kazzes",NA,NA,"have very long wings",1
13,2472,"implied_prevalence","diet",14,"javs",NA,NA,"feed on the carcasses of dead animals",1
13,2063,"implied_prevalence","psychological",15,"frams",NA,NA,"mourn their dead",1
13,1923,"implied_prevalence","disease_self",16,"ollers",NA,NA,"get dandruff",1
13,2046,"implied_prevalence","diet",17,"dorbs",NA,NA,"eat people",1
13,2402,"implied_prevalence","diet",18,"dobles",NA,NA,"eat grass",1
13,2223,"implied_prevalence","behavior",19,"zoovs",NA,NA,"like to cuddle",1
13,3889,"implied_prevalence","behavior_aggressive",20,"mooks",NA,NA,"carry out premeditated murder",1
13,2118,"implied_prevalence","psychological",21,"trufts",NA,NA,"know when earthquakes are about to happen",1
13,2257,"implied_prevalence","behavior",22,"stups",NA,NA,"swim in shallow pools",1
13,2132,"implied_prevalence","physical",23,"taifels",NA,NA,"live to be five hundred years old",1
13,1663,"implied_prevalence","reproduction",24,"lorches",NA,NA,"get erections",1
13,1395,"implied_prevalence","diet",25,"moxes",NA,NA,"eat human food",1
13,5318,"implied_prevalence","psychological",26,"dunkels",NA,NA,"know how to ride bicycles",1
13,1689,"implied_prevalence","physical",27,"plovs",NA,NA,"live to be a hundred years old",1
13,1337,"implied_prevalence","behavior",28,"crullets",NA,NA,"use tools",1
13,1288,"implied_prevalence","psychological",29,"daiths",NA,NA,"are afraid of dogs",1
13,1293,"implied_prevalence","physical",30,"kweps",NA,NA,"live to be twenty years old",1
13,1263,"implied_prevalence","physical",31,"feps",NA,NA,"have brown fur",1
13,1617,"implied_prevalence","behavior_aggressive",32,"cheebas",NA,NA,"hunt other animals",1
13,1351,"implied_prevalence","behavior",33,"glippets",NA,NA,"do handstands to scare off predators",1
13,1368,"implied_prevalence","habitat",34,"krivels",NA,NA,"live in the hulls of sea vessels",1
13,1350,"implied_prevalence","disease_self",35,"ackles",NA,NA,"have strange genetic mutations",1
14,7626,"implied_prevalence","diet",1,"thups",NA,NA,"feed on the carcasses of dead animals",0.81
14,4304,"implied_prevalence","physical",2,"elleps",NA,NA,"live to be five hundred years old",0.64
14,5155,"implied_prevalence","psychological",3,"moxes",NA,NA,"are afraid of dogs",0.9
14,4024,"implied_prevalence","psychological",4,"crullets",NA,NA,"know how to ride bicycles",0.71
14,2893,"implied_prevalence","psychological",5,"kazzes",NA,NA,"develop phobias",1
14,2817,"implied_prevalence","diet",6,"grinks",NA,NA,"drink soda",0.91
14,5089,"implied_prevalence","disease_self",7,"dunkels",NA,NA,"get cancer",0.9
14,5761,"implied_prevalence","diet",8,"ackles",NA,NA,"cannibalize each other",0.93
14,2768,"implied_prevalence","psychological",9,"wugs",NA,NA,"have personalities",0.98
14,3666,"implied_prevalence","diet",10,"kweps",NA,NA,"fish in the Hudson River",1
14,3434,"implied_prevalence","psychological",11,"reesles",NA,NA,"are intelligent",1
14,6133,"implied_prevalence","habitat",12,"ollers",NA,NA,"live in zoos",0.21
14,4832,"implied_prevalence","psychological",13,"lorches",NA,NA,"know when earthquakes are about to happen",0.74
14,2722,"implied_prevalence","behavior_aggressive",14,"ludinos",NA,NA,"torture other animals",0.19
14,3135,"implied_prevalence","behavior",15,"taifels",NA,NA,"ride the subway",0.13
14,4297,"implied_prevalence","behavior_aggressive",16,"morseths",NA,NA,"pound their chests to display dominance",1
14,3447,"implied_prevalence","behavior_aggressive",17,"fendles",NA,NA,"capture other animals&quotechar territory",0.84
14,2939,"implied_prevalence","behavior",18,"sapers",NA,NA,"use tools",1
14,3435,"implied_prevalence","reproduction",19,"daiths",NA,NA,"have dozens of sexual partners",0.87
14,3906,"implied_prevalence","disease_other",20,"zoovs",NA,NA,"carry malaria",0.89
14,4480,"implied_prevalence","physical",21,"dobles",NA,NA,"have four legs",1
14,2833,"implied_prevalence","psychological",22,"blins",NA,NA,"mourn their dead",0.68
14,3842,"implied_prevalence","psychological",23,"stups",NA,NA,"experience emotions",1
14,5186,"implied_prevalence","reproduction",24,"plovs",NA,NA,"give birth underwater",1
14,4383,"implied_prevalence","behavior_aggressive",25,"feps",NA,NA,"hunt other animals",0.94
14,3293,"implied_prevalence","diet",26,"cheebas",NA,NA,"eat grass",0.97
14,2490,"implied_prevalence","physical",27,"dorbs",NA,NA,"have spots",1
14,2965,"implied_prevalence","psychological",28,"krivels",NA,NA,"know how to open doors",0.85
14,4508,"implied_prevalence","disease_other",29,"luzaks",NA,NA,"transmit rabies",0.08
14,5595,"implied_prevalence","physical",30,"zorbs",NA,NA,"have an exquisite sense of smell",0.93
14,3494,"implied_prevalence","behavior",31,"glippets",NA,NA,"swim in shallow pools",0.63
14,2169,"implied_prevalence","diet",32,"frams",NA,NA,"eat insects",0.87
14,3228,"implied_prevalence","disease_self",33,"trufts",NA,NA,"go bald",1
14,3746,"implied_prevalence","reproduction",34,"javs",NA,NA,"attract mates by secreting pheromones",1
14,3777,"implied_prevalence","reproduction",35,"mooks",NA,NA,"have a menstrual cycle",1
14,27796,"explain_responses","disease_other",1,"luzaks","Because not al Luzacks have rabies and therefore only the ones that do can transmit it.",0.08,"transmit rabies",0.09
14,15215,"explain_responses","behavior",2,"taifels","Taifels might live in places without subways largely.",0.13,"ride the subway",0.11
14,71205,"explain_responses","habitat",3,"ollers","Just because they live in zoos doesn&quotechart mean they all live in zoos",0.21,"live in zoos",0.23
14,147979,"explain_responses","behavior_aggressive",4,"ludinos","Because I can&quotechart imagine all Ludinos exhibit this particular behavior just because some do",0.19,"torture other animals",0.18
15,9216,"implied_prevalence","behavior_aggressive",1,"thups",NA,NA,"torture other animals",0.92
15,3079,"implied_prevalence","diet",2,"ackles",NA,NA,"eat garbage",0.82
15,3313,"implied_prevalence","psychological",3,"mooks",NA,NA,"experience emotions",0.99
15,3688,"implied_prevalence","disease_self",4,"stups",NA,NA,"develop back problems",0.53
15,4287,"implied_prevalence","habitat",5,"plovs",NA,NA,"live in urban areas",0.64
15,5240,"implied_prevalence","diet",6,"javs",NA,NA,"drink alcohol left behind by tourists",0.18
15,4634,"implied_prevalence","behavior_aggressive",7,"sapers",NA,NA,"capture other animals&quotechar territory",0.66
15,4286,"implied_prevalence","reproduction",8,"krivels",NA,NA,"attract mates by secreting pheromones",1
15,4657,"implied_prevalence","disease_self",9,"dunkels",NA,NA,"get cancer",0.24
15,7271,"implied_prevalence","behavior",10,"dorbs",NA,NA,"swim in shallow pools",0.88
15,2385,"implied_prevalence","reproduction",11,"elleps",NA,NA,"get erections",0.92
15,3079,"implied_prevalence","diet",12,"kweps",NA,NA,"drink soda",0.24
15,3520,"implied_prevalence","habitat",13,"fendles",NA,NA,"live in high-rise buildings",0.17
15,5176,"implied_prevalence","behavior_aggressive",14,"taifels",NA,NA,"carry out premeditated murder",0.08
15,2696,"implied_prevalence","behavior_aggressive",15,"frams",NA,NA,"get in fights with other animals",0.88
15,3119,"implied_prevalence","psychological",16,"reesles",NA,NA,"mourn their dead",0.91
15,5352,"implied_prevalence","reproduction",17,"wugs",NA,NA,"have a menstrual cycle",0.5
15,3585,"implied_prevalence","disease_self",18,"dobles",NA,NA,"have strange genetic mutations",0.27
15,4272,"implied_prevalence","behavior",19,"kazzes",NA,NA,"chase their tails",0.34
15,3840,"implied_prevalence","diet",20,"feps",NA,NA,"eat cannabis",0.52
15,4272,"implied_prevalence","psychological",21,"crullets",NA,NA,"are intelligent",0.76
15,3544,"implied_prevalence","disease_other",22,"grinks",NA,NA,"carry malaria",0.29
15,4480,"implied_prevalence","physical",23,"daiths",NA,NA,"live to be a hundred years old",0.06
15,3359,"implied_prevalence","disease_other",24,"luzaks",NA,NA,"carry Lyme disease",0.17
15,2399,"implied_prevalence","disease_self",25,"glippets",NA,NA,"get dandruff",0.35
15,6008,"implied_prevalence","behavior",26,"morseths",NA,NA,"sleep during the day",0.9
15,3359,"implied_prevalence","psychological",27,"zorbs",NA,NA,"have personalities",0.82
15,4936,"implied_prevalence","physical",28,"moxes",NA,NA,"live to be twenty years old",0.44
15,4640,"implied_prevalence","disease_other",29,"lorches",NA,NA,"transmit HIV",0.11
15,5752,"implied_prevalence","reproduction",30,"zoovs",NA,NA,"give birth underwater",0.73
15,3632,"implied_prevalence","reproduction",31,"trufts",NA,NA,"have dozens of sexual partners",0.8
15,3233,"implied_prevalence","reproduction",32,"ollers",NA,NA,"lay eggs in other birds&quotechar nests",0.88
15,3471,"implied_prevalence","physical",33,"cheebas",NA,NA,"have an exquisite sense of smell",0.96
15,3663,"implied_prevalence","physical",34,"blins",NA,NA,"have brown fur",0.49
15,2872,"implied_prevalence","disease_self",35,"ludinos",NA,NA,"go bald",0.28
15,28649,"explain_responses","diet",1,"javs","because alcohol left can&quotechart be that common",0.18,"drink alcohol left behind by tourists",0.18
15,33158,"explain_responses","physical",2,"daiths","i&quotecharm sure some live that long but the majority probably die short of it or are killed before it",0.06,"live to be a hundred years old",0.06
15,17408,"explain_responses","disease_other",3,"luzaks","it can&quotechart be so prevalent that all do",0.17,"carry Lyme disease",0.17
15,24961,"explain_responses","physical",4,"moxes","more common number but im sure some die before they reach it",0.44,"live to be twenty years old",0.75
15,18783,"explain_responses","habitat",5,"fendles","high-rise buildings aren&quotechart readily available every where",0.17,"live in high-rise buildings",0.17
16,2506,"implied_prevalence","behavior_aggressive",1,"grinks",NA,NA,"capture other animals&quotechar territory",0.35
16,1353,"implied_prevalence","behavior_aggressive",2,"dunkels",NA,NA,"attack hikers",0.56
16,1057,"implied_prevalence","behavior",3,"glippets",NA,NA,"swim in shallow pools",0.45
16,1066,"implied_prevalence","habitat",4,"lorches",NA,NA,"live in high-rise buildings",0.63
16,3032,"implied_prevalence","behavior_aggressive",5,"ollers",NA,NA,"steal farmers&quotechar crops",0.47
16,1371,"implied_prevalence","reproduction",6,"reesles",NA,NA,"have dozens of sexual partners",0.67
16,1319,"implied_prevalence","behavior_aggressive",7,"ludinos",NA,NA,"carry out premeditated murder",0.54
16,1461,"implied_prevalence","psychological",8,"dorbs",NA,NA,"mourn their dead",0.73
16,2189,"implied_prevalence","physical",9,"feps",NA,NA,"have four legs",0.45
16,1587,"implied_prevalence","psychological",10,"taifels",NA,NA,"experience empathy",0.66
16,2187,"implied_prevalence","physical",11,"morseths",NA,NA,"have an exquisite sense of smell",0.37
16,1175,"implied_prevalence","habitat",12,"wugs",NA,NA,"live in trees",0.58
16,1166,"implied_prevalence","diet",13,"zoovs",NA,NA,"eat garbage",0.53
16,1844,"implied_prevalence","reproduction",14,"cheebas",NA,NA,"attract mates by secreting pheromones",0.61
16,2413,"implied_prevalence","reproduction",15,"crullets",NA,NA,"give birth underwater",0.37
16,1464,"implied_prevalence","behavior",16,"mooks",NA,NA,"play with bottlecaps",0.62
16,1341,"implied_prevalence","physical",17,"elleps",NA,NA,"live to be five hundred years old",0.48
16,2707,"implied_prevalence","behavior",18,"zorbs",NA,NA,"do handstands to scare off predators",0.58
16,1770,"implied_prevalence","behavior",19,"kweps",NA,NA,"fly into building windows",0.4
16,25663,"implied_prevalence","behavior",20,"frams",NA,NA,"ride the subway",0.44
16,1153,"implied_prevalence","diet",21,"blins",NA,NA,"feed on the carcasses of dead animals",0.45
16,2350,"implied_prevalence","diet",22,"dobles",NA,NA,"eat human food",0.54
16,1533,"implied_prevalence","diet",23,"krivels",NA,NA,"cannibalize each other",0.63
16,1168,"implied_prevalence","behavior",24,"javs",NA,NA,"use tools",0.42
16,2885,"implied_prevalence","psychological",25,"ackles",NA,NA,"know how to ride bicycles",0.4
16,2168,"implied_prevalence","disease_other",26,"sapers",NA,NA,"carry Lyme disease",0.52
16,2488,"implied_prevalence","habitat",27,"daiths",NA,NA,"live in the hulls of sea vessels",0.44
16,1904,"implied_prevalence","diet",28,"trufts",NA,NA,"eat cannabis",0.59
16,1386,"implied_prevalence","diet",29,"stups",NA,NA,"fish in the Hudson River",0.61
16,1586,"implied_prevalence","psychological",30,"kazzes",NA,NA,"are afraid of loud noises",0.4
16,1967,"implied_prevalence","reproduction",31,"plovs",NA,NA,"have a menstrual cycle",0.68
16,2222,"implied_prevalence","psychological",32,"moxes",NA,NA,"develop phobias",0.52
16,1560,"implied_prevalence","psychological",33,"fendles",NA,NA,"have personalities",0.61
16,1478,"implied_prevalence","disease_other",34,"thups",NA,NA,"transmit rabies",0.6
16,2193,"implied_prevalence","behavior",35,"luzaks",NA,NA,"sleep during the day",0.46
16,10882,"explain_responses","behavior",1,"kweps","seems about right",0.4,"fly into building windows",0.57
16,8492,"explain_responses","habitat",2,"daiths","semm abour right",0.44,"live in the hulls of sea vessels",0.44
16,7611,"explain_responses","psychological",3,"kazzes","seens right",0.4,"are afraid of loud noises",0.4
16,7441,"explain_responses","behavior_aggressive",4,"grinks","seems right",0.35,"capture other animals&quotechar territory",0.35
16,6458,"explain_responses","physical",5,"feps","seems right",0.45,"have four legs",0.45
17,13713,"implied_prevalence","diet",1,"daiths",NA,NA,"feed on the carcasses of dead animals",1
17,7242,"implied_prevalence","physical",2,"ackles",NA,NA,"live to be five hundred years old",0.92
17,5081,"implied_prevalence","behavior_aggressive",3,"dorbs",NA,NA,"attack hikers",0.91
17,9982,"implied_prevalence","behavior",4,"thups",NA,NA,"swim in shallow pools",0.93
17,2142,"implied_prevalence","physical",5,"sapers",NA,NA,"have an exquisite sense of smell",0.88
17,2235,"implied_prevalence","reproduction",6,"ludinos",NA,NA,"have dozens of sexual partners",0.93
17,3807,"implied_prevalence","behavior_aggressive",7,"zorbs",NA,NA,"torture other animals",0.89
17,2911,"implied_prevalence","behavior",8,"lorches",NA,NA,"perform in the circus",0.94
17,2775,"implied_prevalence","physical",9,"krivels",NA,NA,"have brown fur",0.95
17,2033,"implied_prevalence","habitat",10,"taifels",NA,NA,"live in trees",0.9
17,2688,"implied_prevalence","disease_self",11,"morseths",NA,NA,"get dandruff",0.9
17,4246,"implied_prevalence","diet",12,"cheebas",NA,NA,"eat candy wrappers",0.95
17,1683,"implied_prevalence","behavior",13,"fendles",NA,NA,"ride the subway",0.95
17,1364,"implied_prevalence","behavior",14,"elleps",NA,NA,"use tools",1
17,2600,"implied_prevalence","behavior_aggressive",15,"dunkels",NA,NA,"pound their chests to display dominance",1
17,1973,"implied_prevalence","physical",16,"luzaks",NA,NA,"have intensely beautiful feathers",1
17,1551,"implied_prevalence","behavior",17,"kweps",NA,NA,"sleep during the day",0.9
17,1550,"implied_prevalence","physical",18,"zoovs",NA,NA,"have spots",0.89
17,1464,"implied_prevalence","diet",19,"javs",NA,NA,"eat grass",0.89
17,1506,"implied_prevalence","diet",20,"reesles",NA,NA,"eat insects",0.92
17,1613,"implied_prevalence","disease_other",21,"glippets",NA,NA,"carry Lyme disease",0.88
17,1681,"implied_prevalence","behavior",22,"trufts",NA,NA,"do handstands to scare off predators",0.97
17,2976,"implied_prevalence","disease_other",23,"moxes",NA,NA,"transmit HIV",0.95
17,5178,"implied_prevalence","behavior",24,"plovs",NA,NA,"fly into building windows",0.86
17,1471,"implied_prevalence","disease_other",25,"wugs",NA,NA,"transmit rabies",0.88
17,1362,"implied_prevalence","psychological",26,"stups",NA,NA,"know when earthquakes are about to happen",0.85
17,1147,"implied_prevalence","diet",27,"blins",NA,NA,"drink alcohol left behind by tourists",0.78
17,1884,"implied_prevalence","psychological",28,"frams",NA,NA,"are afraid of dogs",0.84
17,1199,"implied_prevalence","diet",29,"kazzes",NA,NA,"eat people",0.87
17,1201,"implied_prevalence","physical",30,"crullets",NA,NA,"live to be twenty years old",0.84
17,1207,"implied_prevalence","diet",31,"dobles",NA,NA,"drink soda",0.9
17,4399,"implied_prevalence","reproduction",32,"grinks",NA,NA,"have a menstrual cycle",0.92
17,1360,"implied_prevalence","habitat",33,"mooks",NA,NA,"live in the hulls of sea vessels",0.96
17,1356,"implied_prevalence","disease_self",34,"feps",NA,NA,"have strange genetic mutations",0.89
17,1294,"implied_prevalence","behavior",35,"ollers",NA,NA,"sing beautiful songs",0.92
18,2598,"implied_prevalence","disease_self",1,"morseths",NA,NA,"develop back problems",0.63
18,1948,"implied_prevalence","disease_self",2,"kazzes",NA,NA,"get addicted to nicotine",0.68
18,1517,"implied_prevalence","physical",3,"stups",NA,NA,"have spots",0.72
18,1328,"implied_prevalence","diet",4,"reesles",NA,NA,"eat garbage",0.64
18,1400,"implied_prevalence","psychological",5,"luzaks",NA,NA,"know how to ride bicycles",0.7
18,2699,"implied_prevalence","reproduction",6,"javs",NA,NA,"give birth underwater",0.62
18,1242,"implied_prevalence","behavior_aggressive",7,"ackles",NA,NA,"attack hikers",0.76
18,1481,"implied_prevalence","reproduction",8,"ollers",NA,NA,"have dozens of sexual partners",0.72
18,1565,"implied_prevalence","behavior",9,"dorbs",NA,NA,"sleep during the day",0.82
18,1504,"implied_prevalence","reproduction",10,"frams",NA,NA,"lay eggs in other birds&quotechar nests",0.62
18,1370,"implied_prevalence","reproduction",11,"dunkels",NA,NA,"attract mates by secreting pheromones",0.81
18,1407,"implied_prevalence","diet",12,"kweps",NA,NA,"drink alcohol left behind by tourists",0.62
18,1282,"implied_prevalence","physical",13,"ludinos",NA,NA,"have an exquisite sense of smell",0.8
18,1454,"implied_prevalence","diet",14,"grinks",NA,NA,"cannibalize each other",0.66
18,1511,"implied_prevalence","behavior_aggressive",15,"moxes",NA,NA,"carry out premeditated murder",0.79
18,1360,"implied_prevalence","behavior_aggressive",16,"blins",NA,NA,"pound their chests to display dominance",0.59
18,1630,"implied_prevalence","physical",17,"trufts",NA,NA,"have four legs",0.76
18,5512,"implied_prevalence","disease_self",18,"zoovs",NA,NA,"lose their teeth",0.6
18,1409,"implied_prevalence","behavior",19,"zorbs",NA,NA,"swim in shallow pools",0.77
18,1449,"implied_prevalence","psychological",20,"lorches",NA,NA,"are afraid of dogs",0.63
18,1302,"implied_prevalence","diet",21,"taifels",NA,NA,"eat cannabis",0.72
18,1498,"implied_prevalence","behavior",22,"feps",NA,NA,"fly into building windows",0.54
18,1316,"implied_prevalence","physical",23,"sapers",NA,NA,"have brown fur",0.76
18,1696,"implied_prevalence","psychological",24,"crullets",NA,NA,"have personalities",0.85
18,1326,"implied_prevalence","behavior",25,"daiths",NA,NA,"do handstands to scare off predators",0.68
18,1423,"implied_prevalence","psychological",26,"krivels",NA,NA,"are afraid of loud noises",0.74
18,1492,"implied_prevalence","reproduction",27,"elleps",NA,NA,"have a menstrual cycle",0.64
18,1322,"implied_prevalence","disease_self",28,"cheebas",NA,NA,"have strange genetic mutations",0.76
18,1312,"implied_prevalence","diet",29,"thups",NA,NA,"eat insects",0.59
18,1357,"implied_prevalence","behavior_aggressive",30,"plovs",NA,NA,"capture other animals&quotechar territory",0.77
18,1606,"implied_prevalence","behavior_aggressive",31,"fendles",NA,NA,"steal farmers&quotechar crops",0.65
18,1523,"implied_prevalence","behavior",32,"glippets",NA,NA,"play with bottlecaps",0.71
18,2247,"implied_prevalence","behavior_aggressive",33,"wugs",NA,NA,"torture other animals",0.56
18,1287,"implied_prevalence","diet",34,"dobles",NA,NA,"eat human food",0.75
18,1295,"implied_prevalence","behavior",35,"mooks",NA,NA,"perform in the circus",0.63
19,16859,"implied_prevalence","physical",1,"kazzes",NA,NA,"live to be five hundred years old",0.68
19,2901,"implied_prevalence","reproduction",2,"grinks",NA,NA,"lay eggs without needing fertilization",0.75
19,3192,"implied_prevalence","behavior",3,"taifels",NA,NA,"play with bottlecaps",0.74
19,2760,"implied_prevalence","reproduction",4,"ackles",NA,NA,"have dozens of sexual partners",0.73
19,2474,"implied_prevalence","psychological",5,"glippets",NA,NA,"know when earthquakes are about to happen",0.73
19,1916,"implied_prevalence","physical",6,"luzaks",NA,NA,"live to be a hundred years old",0.76
19,2732,"implied_prevalence","disease_self",7,"crullets",NA,NA,"go bald",0.78
19,2336,"implied_prevalence","physical",8,"wugs",NA,NA,"have intensely beautiful feathers",0.72
19,2589,"implied_prevalence","habitat",9,"feps",NA,NA,"live in high-rise buildings",0.75
19,3055,"implied_prevalence","diet",10,"moxes",NA,NA,"eat people",0.68
19,22549,"implied_prevalence","physical",11,"morseths",NA,NA,"live to be twenty years old",0.68
19,2265,"implied_prevalence","physical",12,"stups",NA,NA,"have brown fur",0.79
19,4228,"implied_prevalence","psychological",13,"elleps",NA,NA,"know how to ride bicycles",0.83
19,2176,"implied_prevalence","habitat",14,"reesles",NA,NA,"live in zoos",0.74
19,1619,"implied_prevalence","diet",15,"fendles",NA,NA,"drink alcohol left behind by tourists",0.84
19,2595,"implied_prevalence","habitat",16,"cheebas",NA,NA,"live in trees",0.81
19,2677,"implied_prevalence","disease_self",17,"lorches",NA,NA,"get dandruff",0.79
19,2504,"implied_prevalence","psychological",18,"krivels",NA,NA,"know how to open doors",0.83
19,1751,"implied_prevalence","behavior",19,"trufts",NA,NA,"use tools",0.76
19,2081,"implied_prevalence","behavior_aggressive",20,"dobles",NA,NA,"steal farmers&quotechar crops",0.81
19,1354,"implied_prevalence","psychological",21,"thups",NA,NA,"experience emotions",0.81
19,1527,"implied_prevalence","psychological",22,"plovs",NA,NA,"develop phobias",0.82
19,4667,"implied_prevalence","behavior_aggressive",23,"zoovs",NA,NA,"pound their chests to display dominance",0.77
19,3884,"implied_prevalence","psychological",24,"kweps",NA,NA,"are afraid of dogs",0.77
19,2069,"implied_prevalence","diet",25,"mooks",NA,NA,"drink soda",0.8
19,1961,"implied_prevalence","behavior",26,"ollers",NA,NA,"fly into building windows",0.75
19,1805,"implied_prevalence","behavior_aggressive",27,"zorbs",NA,NA,"get in fights with other animals",0.73
19,2082,"implied_prevalence","reproduction",28,"javs",NA,NA,"give birth underwater",0.85
19,2279,"implied_prevalence","behavior_aggressive",29,"frams",NA,NA,"attack hikers",0.75
19,1583,"implied_prevalence","disease_self",30,"sapers",NA,NA,"get addicted to nicotine",0.77
19,2895,"implied_prevalence","disease_other",31,"daiths",NA,NA,"carry malaria",0.78
19,1648,"implied_prevalence","diet",32,"ludinos",NA,NA,"cannibalize each other",0.77
19,2294,"implied_prevalence","psychological",33,"blins",NA,NA,"mourn their dead",0.73
19,2153,"implied_prevalence","disease_self",34,"dunkels",NA,NA,"develop back problems",0.79
19,1867,"implied_prevalence","diet",35,"dorbs",NA,NA,"fish in the Hudson River",0.78
20,9942,"implied_prevalence","diet",1,"reesles",NA,NA,"cannibalize each other",0.93
20,9156,"implied_prevalence","disease_self",2,"krivels",NA,NA,"develop back problems",0.8
20,2846,"implied_prevalence","diet",3,"frams",NA,NA,"eat insects",1
20,5816,"implied_prevalence","disease_self",4,"cheebas",NA,NA,"get cancer",0.5
20,7706,"implied_prevalence","behavior",5,"sapers",NA,NA,"ride the subway",1
20,7152,"implied_prevalence","reproduction",6,"elleps",NA,NA,"lay eggs in other birds&quotechar nests",1
20,4218,"implied_prevalence","diet",7,"dunkels",NA,NA,"eat candy wrappers",0.75
20,7910,"implied_prevalence","disease_other",8,"morseths",NA,NA,"transmit rabies",1
20,4534,"implied_prevalence","behavior_aggressive",9,"glippets",NA,NA,"torture other animals",1
20,11958,"implied_prevalence","physical",10,"crullets",NA,NA,"live to be five hundred years old",0.7
20,7100,"implied_prevalence","disease_self",11,"moxes",NA,NA,"get addicted to nicotine",0.69
20,4398,"implied_prevalence","diet",12,"javs",NA,NA,"eat people",0.88
20,3206,"implied_prevalence","psychological",13,"zorbs",NA,NA,"are afraid of loud noises",1
20,3366,"implied_prevalence","behavior_aggressive",14,"blins",NA,NA,"pound their chests to display dominance",1
20,4420,"implied_prevalence","disease_other",15,"dobles",NA,NA,"transmit HIV",0.74
20,7042,"implied_prevalence","habitat",16,"luzaks",NA,NA,"live in high-rise buildings",0.89
20,3420,"implied_prevalence","physical",17,"ludinos",NA,NA,"live to be a hundred years old",0.83
20,2496,"implied_prevalence","psychological",18,"kazzes",NA,NA,"mourn their dead",1
20,3856,"implied_prevalence","disease_self",19,"stups",NA,NA,"have seizures",0.8
20,3322,"implied_prevalence","physical",20,"trufts",NA,NA,"have intensely beautiful feathers",1
20,4118,"implied_prevalence","habitat",21,"kweps",NA,NA,"live in zoos",1
20,5906,"implied_prevalence","diet",22,"zoovs",NA,NA,"eat cannabis",0.91
20,7008,"implied_prevalence","reproduction",23,"ollers",NA,NA,"have a menstrual cycle",0.5
20,4444,"implied_prevalence","behavior",24,"grinks",NA,NA,"perform in the circus",0.81
20,3330,"implied_prevalence","disease_self",25,"mooks",NA,NA,"go bald",0.82
20,3184,"implied_prevalence","psychological",26,"dorbs",NA,NA,"experience emotions",1
20,2768,"implied_prevalence","behavior_aggressive",27,"thups",NA,NA,"steal farmers&quotechar crops",0.82
20,2712,"implied_prevalence","reproduction",28,"daiths",NA,NA,"give birth underwater",1
20,6422,"implied_prevalence","psychological",29,"plovs",NA,NA,"know how to ride bicycles",1
20,3532,"implied_prevalence","behavior",30,"taifels",NA,NA,"chase their tails",1
20,3396,"implied_prevalence","behavior",31,"ackles",NA,NA,"use tools",0.92
20,3004,"implied_prevalence","behavior_aggressive",32,"wugs",NA,NA,"carry out premeditated murder",0.85
20,4040,"implied_prevalence","disease_self",33,"feps",NA,NA,"get dandruff",0.93
20,6906,"implied_prevalence","physical",34,"fendles",NA,NA,"live to be twenty years old",0.83
20,2622,"implied_prevalence","physical",35,"lorches",NA,NA,"have four legs",1
21,11532,"implied_prevalence","habitat",1,"morseths",NA,NA,"live in urban areas",1
21,1655,"implied_prevalence","reproduction",2,"glippets",NA,NA,"get erections",0.99
21,1704,"implied_prevalence","disease_self",3,"moxes",NA,NA,"go bald",1
21,5456,"implied_prevalence","disease_self",4,"dunkels",NA,NA,"have strange genetic mutations",1
21,2247,"implied_prevalence","psychological",5,"ludinos",NA,NA,"mourn their dead",1
21,12984,"implied_prevalence","behavior",6,"ackles",NA,NA,"do handstands to scare off predators",1
21,1440,"implied_prevalence","psychological",7,"blins",NA,NA,"have personalities",1
21,1295,"implied_prevalence","behavior_aggressive",8,"trufts",NA,NA,"get in fights with other animals",1
21,1201,"implied_prevalence","diet",9,"sapers",NA,NA,"drink alcohol left behind by tourists",1
21,1632,"implied_prevalence","physical",10,"zoovs",NA,NA,"have spots",1
21,1783,"implied_prevalence","diet",11,"dorbs",NA,NA,"drink soda",1
21,1465,"implied_prevalence","behavior",12,"luzaks",NA,NA,"perform in the circus",1
21,1231,"implied_prevalence","disease_other",13,"javs",NA,NA,"transmit HIV",1
21,1136,"implied_prevalence","behavior",14,"thups",NA,NA,"sing beautiful songs",1
21,1296,"implied_prevalence","behavior",15,"fendles",NA,NA,"fly into building windows",1
21,1527,"implied_prevalence","physical",16,"taifels",NA,NA,"live to be a hundred years old",1
21,1425,"implied_prevalence","psychological",17,"plovs",NA,NA,"experience empathy",1
21,1696,"implied_prevalence","disease_self",18,"mooks",NA,NA,"have seizures",1
21,2200,"implied_prevalence","disease_self",19,"kazzes",NA,NA,"get dandruff",1
21,1176,"implied_prevalence","reproduction",20,"reesles",NA,NA,"give birth underwater",1
21,1319,"implied_prevalence","behavior_aggressive",21,"kweps",NA,NA,"torture other animals",1
21,1304,"implied_prevalence","behavior_aggressive",22,"daiths",NA,NA,"carry out premeditated murder",1
21,1152,"implied_prevalence","diet",23,"elleps",NA,NA,"cannibalize each other",1
21,1448,"implied_prevalence","behavior",24,"stups",NA,NA,"chase their tails",1
21,1655,"implied_prevalence","diet",25,"lorches",NA,NA,"eat insects",1
21,1200,"implied_prevalence","disease_self",26,"grinks",NA,NA,"develop back problems",1
21,2641,"implied_prevalence","disease_self",27,"wugs",NA,NA,"lose their teeth",1
21,1303,"implied_prevalence","behavior_aggressive",28,"cheebas",NA,NA,"steal farmers&quotechar crops",1
21,1249,"implied_prevalence","physical",29,"ollers",NA,NA,"have very long wings",1
21,2206,"implied_prevalence","psychological",30,"frams",NA,NA,"develop phobias",1
21,1527,"implied_prevalence","disease_other",31,"zorbs",NA,NA,"transmit rabies",1
21,1528,"implied_prevalence","physical",32,"dobles",NA,NA,"live to be twenty years old",1
21,2521,"implied_prevalence","behavior_aggressive",33,"krivels",NA,NA,"pound their chests to display dominance",1
21,2558,"implied_prevalence","diet",34,"crullets",NA,NA,"eat garbage",1
21,2007,"implied_prevalence","psychological",35,"feps",NA,NA,"are intelligent",1
22,2410,"implied_prevalence","physical",1,"luzaks",NA,NA,"have an exquisite sense of smell",0.73
22,1450,"implied_prevalence","diet",2,"ackles",NA,NA,"eat candy wrappers",0.78
22,1087,"implied_prevalence","behavior_aggressive",3,"mooks",NA,NA,"torture other animals",0.71
22,1624,"implied_prevalence","disease_self",4,"fendles",NA,NA,"get addicted to nicotine",0.79
22,1349,"implied_prevalence","behavior",5,"frams",NA,NA,"play with bottlecaps",0.67
22,1726,"implied_prevalence","psychological",6,"krivels",NA,NA,"experience empathy",0.85
22,1148,"implied_prevalence","behavior",7,"trufts",NA,NA,"fly into building windows",0.63
22,1313,"implied_prevalence","habitat",8,"lorches",NA,NA,"live in zoos",0.83
22,1531,"implied_prevalence","disease_other",9,"zorbs",NA,NA,"transmit rabies",0.7
22,2541,"implied_prevalence","reproduction",10,"daiths",NA,NA,"have a menstrual cycle",0.85
22,1246,"implied_prevalence","behavior_aggressive",11,"thups",NA,NA,"steal farmers&quotechar crops",0.73
22,1162,"implied_prevalence","disease_self",12,"dobles",NA,NA,"lose their teeth",0.79
22,2292,"implied_prevalence","habitat",13,"crullets",NA,NA,"live in the hulls of sea vessels",0.88
22,1180,"implied_prevalence","physical",14,"wugs",NA,NA,"have brown fur",0.68
22,1320,"implied_prevalence","disease_self",15,"ollers",NA,NA,"have strange genetic mutations",0.83
22,1247,"implied_prevalence","reproduction",16,"ludinos",NA,NA,"get erections",0.87
22,1333,"implied_prevalence","behavior",17,"dorbs",NA,NA,"sleep during the day",0.77
22,1211,"implied_prevalence","behavior",18,"moxes",NA,NA,"like to cuddle",0.62
22,1287,"implied_prevalence","behavior",19,"kazzes",NA,NA,"use tools",0.89
22,1260,"implied_prevalence","psychological",20,"blins",NA,NA,"are afraid of dogs",0.78
22,1717,"implied_prevalence","physical",21,"zoovs",NA,NA,"have very long wings",0.69
22,1999,"implied_prevalence","disease_other",22,"morseths",NA,NA,"transmit HIV",0.77
22,1419,"implied_prevalence","diet",23,"dunkels",NA,NA,"feed on the carcasses of dead animals",0.63
22,1547,"implied_prevalence","psychological",24,"javs",NA,NA,"know when earthquakes are about to happen",0.89
22,1738,"implied_prevalence","diet",25,"elleps",NA,NA,"eat people",0.69
22,1549,"implied_prevalence","habitat",26,"reesles",NA,NA,"live in high-rise buildings",0.8
22,1751,"implied_prevalence","diet",27,"cheebas",NA,NA,"fish in the Hudson River",0.73
22,2192,"implied_prevalence","behavior_aggressive",28,"plovs",NA,NA,"capture other animals&quotechar territory",0.9
22,1379,"implied_prevalence","behavior_aggressive",29,"feps",NA,NA,"get in fights with other animals",0.77
22,1244,"implied_prevalence","behavior_aggressive",30,"stups",NA,NA,"hunt other animals",0.86
22,2455,"implied_prevalence","reproduction",31,"taifels",NA,NA,"attract mates by secreting pheromones",0.78
22,1608,"implied_prevalence","diet",32,"kweps",NA,NA,"eat cannabis",0.71
22,2537,"implied_prevalence","reproduction",33,"glippets",NA,NA,"lay eggs in other birds&quotechar nests",0.71
22,1275,"implied_prevalence","physical",34,"sapers",NA,NA,"live to be a hundred years old",0.79
22,1432,"implied_prevalence","disease_self",35,"grinks",NA,NA,"have seizures",0.9
23,7186,"implied_prevalence","behavior",1,"plovs",NA,NA,"perform in the circus",0.05
23,8617,"implied_prevalence","habitat",2,"fendles",NA,NA,"live in high-rise buildings",0.01
23,5790,"implied_prevalence","behavior_aggressive",3,"cheebas",NA,NA,"capture other animals&quotechar territory",0.5
23,3356,"implied_prevalence","psychological",4,"feps",NA,NA,"develop phobias",0.14
23,2978,"implied_prevalence","physical",5,"grinks",NA,NA,"have four legs",0.66
23,3642,"implied_prevalence","behavior",6,"zorbs",NA,NA,"swim in shallow pools",0.18
23,3201,"implied_prevalence","disease_self",7,"glippets",NA,NA,"have seizures",0.09
23,4669,"implied_prevalence","diet",8,"reesles",NA,NA,"feed on the carcasses of dead animals",0.6
23,7376,"implied_prevalence","diet",9,"wugs",NA,NA,"eat human food",0.56
23,5277,"implied_prevalence","psychological",10,"javs",NA,NA,"have personalities",0
23,4463,"implied_prevalence","physical",11,"ackles",NA,NA,"live to be twenty years old",0.24
23,8324,"implied_prevalence","reproduction",12,"kazzes",NA,NA,"get erections",0.25
23,8108,"implied_prevalence","diet",13,"daiths",NA,NA,"eat insects",0.55
23,3546,"implied_prevalence","physical",14,"dunkels",NA,NA,"have an exquisite sense of smell",0.65
23,2955,"implied_prevalence","diet",15,"thups",NA,NA,"cannibalize each other",0.42
23,2477,"implied_prevalence","reproduction",16,"morseths",NA,NA,"have a menstrual cycle",0.34
23,2764,"implied_prevalence","behavior",17,"kweps",NA,NA,"like to cuddle",0.39
23,3638,"implied_prevalence","behavior",18,"moxes",NA,NA,"use tools",0
23,2965,"implied_prevalence","psychological",19,"crullets",NA,NA,"are afraid of loud noises",0.23
23,2761,"implied_prevalence","habitat",20,"zoovs",NA,NA,"live in zoos",0.03
23,4595,"implied_prevalence","behavior",21,"dorbs",NA,NA,"fly into building windows",0.15
23,2347,"implied_prevalence","disease_other",22,"elleps",NA,NA,"transmit HIV",0.13
23,6253,"implied_prevalence","reproduction",23,"luzaks",NA,NA,"give birth underwater",0.17
23,2824,"implied_prevalence","reproduction",24,"stups",NA,NA,"attract mates by secreting pheromones",0.28
23,5239,"implied_prevalence","behavior",25,"krivels",NA,NA,"do handstands to scare off predators",0.03
23,3292,"implied_prevalence","psychological",26,"frams",NA,NA,"are intelligent",0.31
23,1856,"implied_prevalence","disease_self",27,"sapers",NA,NA,"have strange genetic mutations",0.27
23,15344,"implied_prevalence","behavior_aggressive",28,"dobles",NA,NA,"carry out premeditated murder",0
23,15402,"implied_prevalence","diet",29,"lorches",NA,NA,"eat grass",0.08
23,15996,"implied_prevalence","psychological",30,"taifels",NA,NA,"experience empathy",0.05
23,7373,"implied_prevalence","behavior",31,"ludinos",NA,NA,"play with bottlecaps",0.04
23,2157,"implied_prevalence","diet",32,"trufts",NA,NA,"eat candy wrappers",0.02
23,1849,"implied_prevalence","disease_self",33,"blins",NA,NA,"go bald",0.04
23,3334,"implied_prevalence","diet",34,"ollers",NA,NA,"drink soda",0
23,4122,"implied_prevalence","physical",35,"mooks",NA,NA,"live to be five hundred years old",0
23,26201,"explain_responses","behavior",1,"krivels","I think it&quotechars possible these animals do handstands, but not likely. That seems silly.",0.03,"do handstands to scare off predators",0.03
23,25644,"explain_responses","behavior",2,"plovs","I think it is likely that a small number are in the circus, but not a large number.",0.05,"perform in the circus",0.05
23,18914,"explain_responses","behavior",3,"ludinos","I suppose it&quotechars possible that some play with bottlecaps, but not a lot.",0.04,"play with bottlecaps",0.04
23,28933,"explain_responses","reproduction",4,"morseths","I think some animals do have this, but a greater number might not.",0.34,"have a menstrual cycle",0.34
23,19594,"explain_responses","disease_self",5,"sapers","I think some might have mutations. I am leaning towards a low number.",0.27,"have strange genetic mutations",0.27
24,8921,"implied_prevalence","behavior_aggressive",1,"zorbs",NA,NA,"torture other animals",1
24,5027,"implied_prevalence","behavior_aggressive",2,"zoovs",NA,NA,"pound their chests to display dominance",1
24,8646,"implied_prevalence","behavior_aggressive",3,"morseths",NA,NA,"carry out premeditated murder",0.5
24,4792,"implied_prevalence","behavior",4,"dunkels",NA,NA,"sleep during the day",1
24,11812,"implied_prevalence","physical",5,"elleps",NA,NA,"live to be five hundred years old",0.67
24,5066,"implied_prevalence","disease_self",6,"mooks",NA,NA,"get dandruff",0.64
24,2944,"implied_prevalence","psychological",7,"dorbs",NA,NA,"experience emotions",1
24,4377,"implied_prevalence","reproduction",8,"krivels",NA,NA,"have dozens of sexual partners",0.88
24,2919,"implied_prevalence","physical",9,"luzaks",NA,NA,"have brown fur",1
24,4326,"implied_prevalence","behavior",10,"javs",NA,NA,"sing beautiful songs",0.97
24,2677,"implied_prevalence","diet",11,"wugs",NA,NA,"eat insects",1
24,6062,"implied_prevalence","disease_self",12,"cheebas",NA,NA,"have strange genetic mutations",0.61
24,5857,"implied_prevalence","physical",13,"daiths",NA,NA,"have an exquisite sense of smell",1
24,3823,"implied_prevalence","psychological",14,"fendles",NA,NA,"develop phobias",0.88
24,4970,"implied_prevalence","physical",15,"ackles",NA,NA,"live to be twenty years old",0.6
24,4410,"implied_prevalence","psychological",16,"dobles",NA,NA,"mourn their dead",1
24,10340,"implied_prevalence","physical",17,"frams",NA,NA,"have intensely beautiful feathers",0.98
24,3296,"implied_prevalence","psychological",18,"moxes",NA,NA,"know how to ride bicycles",0.75
24,4822,"implied_prevalence","disease_other",19,"lorches",NA,NA,"transmit HIV",0.75
24,3273,"implied_prevalence","behavior",20,"plovs",NA,NA,"use tools",1
24,6038,"implied_prevalence","diet",21,"crullets",NA,NA,"drink soda",0.64
24,2644,"implied_prevalence","behavior",22,"sapers",NA,NA,"like to cuddle",1
24,2590,"implied_prevalence","disease_other",23,"thups",NA,NA,"carry malaria",1
24,4451,"implied_prevalence","psychological",24,"ludinos",NA,NA,"know how to open doors",1
24,5190,"implied_prevalence","diet",25,"taifels",NA,NA,"cannibalize each other",0.5
24,5966,"implied_prevalence","behavior",26,"ollers",NA,NA,"ride the subway",0.39
24,5885,"implied_prevalence","behavior",27,"glippets",NA,NA,"perform in the circus",0.52
24,3193,"implied_prevalence","behavior_aggressive",28,"reesles",NA,NA,"attack hikers",0.65
24,5041,"implied_prevalence","physical",29,"trufts",NA,NA,"have very long wings",1
24,2740,"implied_prevalence","disease_self",30,"feps",NA,NA,"develop back problems",0.71
24,2582,"implied_prevalence","physical",31,"kazzes",NA,NA,"have spots",1
24,5802,"implied_prevalence","habitat",32,"blins",NA,NA,"live in the hulls of sea vessels",0.74
24,4040,"implied_prevalence","habitat",33,"stups",NA,NA,"live in high-rise buildings",0.83
24,2794,"implied_prevalence","habitat",34,"kweps",NA,NA,"live in urban areas",0.8
24,6666,"implied_prevalence","diet",35,"grinks",NA,NA,"drink alcohol left behind by tourists",0.6
24,24395,"explain_responses","behavior",1,"ollers","The way it&quotechars worded suggest that not all of them ride it. ",0.39,"ride the subway",0.59
25,6191,"implied_prevalence","habitat",1,"taifels",NA,NA,"live in urban areas",0.7
25,3818,"implied_prevalence","physical",2,"plovs",NA,NA,"have brown fur",0.84
25,5897,"implied_prevalence","behavior_aggressive",3,"dorbs",NA,NA,"get in fights with other animals",0.38
25,4176,"implied_prevalence","habitat",4,"luzaks",NA,NA,"live in high-rise buildings",0.52
25,3420,"implied_prevalence","behavior_aggressive",5,"wugs",NA,NA,"pound their chests to display dominance",0.87
25,2877,"implied_prevalence","reproduction",6,"crullets",NA,NA,"give birth underwater",0.93
25,2864,"implied_prevalence","behavior_aggressive",7,"thups",NA,NA,"steal farmers&quotechar crops",0.65
25,3752,"implied_prevalence","reproduction",8,"reesles",NA,NA,"attract mates by secreting pheromones",0.94
25,4210,"implied_prevalence","diet",9,"stups",NA,NA,"eat human food",0.47
25,3656,"implied_prevalence","diet",10,"daiths",NA,NA,"feed on the carcasses of dead animals",0.81
25,3523,"implied_prevalence","disease_self",11,"lorches",NA,NA,"get cancer",0.3
25,1800,"implied_prevalence","disease_other",12,"dobles",NA,NA,"transmit HIV",0.29
25,2100,"implied_prevalence","behavior",13,"krivels",NA,NA,"chase their tails",0.55
25,2275,"implied_prevalence","physical",14,"feps",NA,NA,"have intensely beautiful feathers",0.79
25,2527,"implied_prevalence","psychological",15,"trufts",NA,NA,"are afraid of dogs",0.84
25,2769,"implied_prevalence","psychological",16,"kweps",NA,NA,"know how to open doors",0.31
25,1716,"implied_prevalence","diet",17,"cheebas",NA,NA,"cannibalize each other",0.7
25,2139,"implied_prevalence","behavior",18,"kazzes",NA,NA,"swim in shallow pools",0.79
25,2763,"implied_prevalence","disease_other",19,"ackles",NA,NA,"carry Lyme disease",0.37
25,4199,"implied_prevalence","psychological",20,"fendles",NA,NA,"know when earthquakes are about to happen",0.68
25,2584,"implied_prevalence","disease_self",21,"javs",NA,NA,"have strange genetic mutations",0.59
25,2392,"implied_prevalence","disease_self",22,"ludinos",NA,NA,"get addicted to nicotine",0.69
25,2119,"implied_prevalence","reproduction",23,"elleps",NA,NA,"lay eggs without needing fertilization",0.79
25,2622,"implied_prevalence","diet",24,"blins",NA,NA,"drink soda",0.29
25,4040,"implied_prevalence","behavior",25,"moxes",NA,NA,"play with bottlecaps",0.3
25,2103,"implied_prevalence","reproduction",26,"frams",NA,NA,"lay eggs in other birds&quotechar nests",0.87
25,2753,"implied_prevalence","diet",27,"mooks",NA,NA,"eat people",0.38
25,1990,"implied_prevalence","psychological",28,"ollers",NA,NA,"mourn their dead",0.63
25,2845,"implied_prevalence","psychological",29,"zoovs",NA,NA,"experience emotions",0.95
25,2515,"implied_prevalence","psychological",30,"grinks",NA,NA,"are afraid of loud noises",0.86
25,1977,"implied_prevalence","behavior_aggressive",31,"sapers",NA,NA,"hunt other animals",0.74
25,2316,"implied_prevalence","behavior",32,"dunkels",NA,NA,"fly into building windows",0.38
25,2123,"implied_prevalence","disease_other",33,"glippets",NA,NA,"carry malaria",0.22
25,3706,"implied_prevalence","physical",34,"zorbs",NA,NA,"have spots",0.7
25,2917,"implied_prevalence","diet",35,"morseths",NA,NA,"eat grass",0.89
25,17547,"explain_responses","behavior_aggressive",1,"dorbs","some do, most don&quotechart",0.38,"get in fights with other animals",0.38
25,20783,"explain_responses","behavior",2,"moxes","if they find some they will play with them, but most don&quotechart find or play with them",0.3,"play with bottlecaps",0.3
25,16745,"explain_responses","disease_other",3,"glippets","a small portion might carry it, but all of them don&quotechart",0.22,"carry malaria",0.22
25,17820,"explain_responses","diet",4,"mooks","if they get a chance the eat people, but most never get the chance",0.38,"eat people",0.38
25,18404,"explain_responses","disease_other",5,"dobles","a portion of them transmit HIV, but most do not have it",0.29,"transmit HIV",0.29
26,9176,"implied_prevalence","diet",1,"kazzes",NA,NA,"cannibalize each other",0.82
26,5790,"implied_prevalence","reproduction",2,"morseths",NA,NA,"get erections",0.99
26,5815,"implied_prevalence","disease_other",3,"wugs",NA,NA,"transmit rabies",0.29
26,6405,"implied_prevalence","disease_self",4,"dobles",NA,NA,"have strange genetic mutations",0.68
26,5415,"implied_prevalence","disease_self",5,"dorbs",NA,NA,"have seizures",0.84
26,4836,"implied_prevalence","psychological",6,"thups",NA,NA,"know when earthquakes are about to happen",0.98
26,4562,"implied_prevalence","reproduction",7,"elleps",NA,NA,"have dozens of sexual partners",0.72
26,4430,"implied_prevalence","behavior_aggressive",8,"luzaks",NA,NA,"attack hikers",0.52
26,5319,"implied_prevalence","disease_other",9,"ollers",NA,NA,"transmit HIV",0.39
26,7053,"implied_prevalence","reproduction",10,"mooks",NA,NA,"have a menstrual cycle",0.98
26,5930,"implied_prevalence","psychological",11,"kweps",NA,NA,"experience empathy",0.68
26,4516,"implied_prevalence","behavior",12,"trufts",NA,NA,"perform in the circus",0.28
26,9351,"implied_prevalence","diet",13,"sapers",NA,NA,"fish in the Hudson River",0.92
26,4717,"implied_prevalence","habitat",14,"feps",NA,NA,"live in trees",1
26,3804,"implied_prevalence","behavior",15,"grinks",NA,NA,"swim in shallow pools",0.98
26,4162,"implied_prevalence","psychological",16,"javs",NA,NA,"experience emotions",0.99
26,5870,"implied_prevalence","behavior_aggressive",17,"glippets",NA,NA,"hunt other animals",1
26,4648,"implied_prevalence","physical",18,"cheebas",NA,NA,"live to be twenty years old",0.61
26,3564,"implied_prevalence","psychological",19,"dunkels",NA,NA,"have personalities",1
26,6953,"implied_prevalence","diet",20,"crullets",NA,NA,"eat cannabis",1
26,5697,"implied_prevalence","behavior_aggressive",21,"ludinos",NA,NA,"capture other animals&quotechar territory",0.71
26,4136,"implied_prevalence","psychological",22,"krivels",NA,NA,"are intelligent",0.94
26,5302,"implied_prevalence","behavior",23,"zoovs",NA,NA,"like to cuddle",0.9
26,4311,"implied_prevalence","behavior_aggressive",24,"moxes",NA,NA,"get in fights with other animals",0.8
26,4248,"implied_prevalence","disease_other",25,"blins",NA,NA,"carry malaria",0.52
26,7702,"implied_prevalence","habitat",26,"plovs",NA,NA,"live in urban areas",0.78
26,4966,"implied_prevalence","physical",27,"ackles",NA,NA,"have brown fur",1
26,4953,"implied_prevalence","diet",28,"taifels",NA,NA,"eat people",1
26,3647,"implied_prevalence","behavior",29,"zorbs",NA,NA,"sing beautiful songs",1
26,3199,"implied_prevalence","habitat",30,"frams",NA,NA,"live in zoos",0.15
26,4019,"implied_prevalence","disease_other",31,"stups",NA,NA,"carry Lyme disease",0.37
26,4984,"implied_prevalence","behavior",32,"fendles",NA,NA,"do handstands to scare off predators",1
26,6167,"implied_prevalence","physical",33,"lorches",NA,NA,"have spots",1
26,3436,"implied_prevalence","behavior_aggressive",34,"reesles",NA,NA,"torture other animals",0.85
26,5064,"implied_prevalence","diet",35,"daiths",NA,NA,"eat candy wrappers",0.7
26,44214,"explain_responses","disease_other",1,"wugs","I think that it really meant that they can transmit rabies, not that all of them actually do it.  But they all have the potential.",0.29,"transmit rabies",0.29
26,42499,"explain_responses","disease_other",2,"ollers","I took it as meaning they all have the ability to transmit HIV, not that they all actually end up doing it.",0.39,"transmit HIV",0.39
26,37574,"explain_responses","disease_other",3,"stups","I thought that it really meant that a good amount of them carry Lyme disease, but not all of them.",0.37,"carry Lyme disease",0.71
26,43441,"explain_responses","behavior",4,"trufts","I took it as meaning that they are known for performing in the circus, but not that all of them actually do it.",0.28,"perform in the circus",0.28
26,34854,"explain_responses","habitat",5,"frams","I took it to mean that they are frequently in zoos, but not that that is the only place that they live.",0.15,"live in zoos",0.3
27,10790,"implied_prevalence","reproduction",1,"grinks",NA,NA,"have a menstrual cycle",0.5
27,6775,"implied_prevalence","psychological",2,"plovs",NA,NA,"develop phobias",0.33
27,3725,"implied_prevalence","psychological",3,"trufts",NA,NA,"are afraid of dogs",0.82
27,4691,"implied_prevalence","physical",4,"ollers",NA,NA,"have intensely beautiful feathers",0.99
27,4784,"implied_prevalence","diet",5,"cheebas",NA,NA,"feed on the carcasses of dead animals",0.99
27,4689,"implied_prevalence","behavior",6,"fendles",NA,NA,"ride the subway",0.25
27,4067,"implied_prevalence","diet",7,"dunkels",NA,NA,"eat human food",0.63
27,4844,"implied_prevalence","behavior_aggressive",8,"ludinos",NA,NA,"hunt other animals",1
27,3880,"implied_prevalence","disease_self",9,"glippets",NA,NA,"get dandruff",0.91
27,3897,"implied_prevalence","physical",10,"zoovs",NA,NA,"live to be twenty years old",0.72
27,4333,"implied_prevalence","behavior_aggressive",11,"krivels",NA,NA,"attack hikers",0.66
27,3762,"implied_prevalence","physical",12,"kweps",NA,NA,"have very long wings",0.98
27,3605,"implied_prevalence","disease_self",13,"zorbs",NA,NA,"go bald",0.94
27,3809,"implied_prevalence","disease_self",14,"ackles",NA,NA,"get addicted to nicotine",0.28
27,3455,"implied_prevalence","diet",15,"moxes",NA,NA,"eat candy wrappers",0.4
27,3473,"implied_prevalence","reproduction",16,"frams",NA,NA,"lay eggs in other birds&quotechar nests",0.78
27,3634,"implied_prevalence","diet",17,"blins",NA,NA,"eat grass",0.92
27,5496,"implied_prevalence","physical",18,"elleps",NA,NA,"have an exquisite sense of smell",0.96
27,3381,"implied_prevalence","behavior",19,"dorbs",NA,NA,"do handstands to scare off predators",0.64
27,3527,"implied_prevalence","disease_other",20,"morseths",NA,NA,"carry Lyme disease",0.96
27,3343,"implied_prevalence","physical",21,"luzaks",NA,NA,"have spots",0.99
27,3985,"implied_prevalence","reproduction",22,"daiths",NA,NA,"have dozens of sexual partners",0.58
27,4199,"implied_prevalence","diet",23,"crullets",NA,NA,"fish in the Hudson River",0.34
27,3120,"implied_prevalence","disease_self",24,"sapers",NA,NA,"get cancer",0.54
27,3627,"implied_prevalence","psychological",25,"lorches",NA,NA,"know how to open doors",0.71
27,3732,"implied_prevalence","behavior_aggressive",26,"wugs",NA,NA,"torture other animals",0.86
27,3097,"implied_prevalence","physical",27,"javs",NA,NA,"live to be five hundred years old",0.61
27,4102,"implied_prevalence","physical",28,"kazzes",NA,NA,"have four legs",0.97
27,3530,"implied_prevalence","psychological",29,"thups",NA,NA,"experience emotions",0.99
27,3520,"implied_prevalence","behavior",30,"feps",NA,NA,"swim in shallow pools",0.97
27,3591,"implied_prevalence","habitat",31,"taifels",NA,NA,"live in the hulls of sea vessels",0.65
27,3808,"implied_prevalence","disease_other",32,"reesles",NA,NA,"carry malaria",0.93
27,3310,"implied_prevalence","reproduction",33,"dobles",NA,NA,"get erections",0.51
27,3683,"implied_prevalence","diet",34,"stups",NA,NA,"cannibalize each other",0.33
27,4143,"implied_prevalence","behavior_aggressive",35,"mooks",NA,NA,"pound their chests to display dominance",0.5
27,20493,"explain_responses","diet",1,"crullets","not all live near that river",0.34,"fish in the Hudson River",0.34
27,15800,"explain_responses","diet",2,"moxes","candy wrappers do not exist everywhere",0.4,"eat candy wrappers",0.4
27,16248,"explain_responses","diet",3,"stups","some get eaten before they can eat another",0.33,"cannibalize each other",0.33
27,13968,"explain_responses","behavior",4,"fendles","very few subways in this world",0.25,"ride the subway",0.25
27,11618,"explain_responses","psychological",5,"plovs","develop is not innate",0.33,"develop phobias",0.33
28,8220,"implied_prevalence","psychological",1,"ackles",NA,NA,"mourn their dead",0.79
28,6471,"implied_prevalence","habitat",2,"grinks",NA,NA,"live in the hulls of sea vessels",0.84
28,4423,"implied_prevalence","behavior",3,"morseths",NA,NA,"play with bottlecaps",0.79
28,8455,"implied_prevalence","physical",4,"cheebas",NA,NA,"live to be twenty years old",0.9
28,6170,"implied_prevalence","physical",5,"zoovs",NA,NA,"have spots",0.93
28,6061,"implied_prevalence","psychological",6,"dorbs",NA,NA,"are afraid of loud noises",0.8
28,5296,"implied_prevalence","disease_self",7,"stups",NA,NA,"get cancer",0.85
28,4008,"implied_prevalence","disease_self",8,"luzaks",NA,NA,"develop back problems",0.86
28,7557,"implied_prevalence","disease_self",9,"reesles",NA,NA,"get dandruff",0.85
